submission_id,Handedness,Mapping,QUD,RT,Response,age,comments,correctness,endTime,expected,experiment_id,gender,key1,key2,key_pressed,languages,option1,option2,p,picture,q,question,startDate,startTime,technical_issues,timeSpent,trial_number,trial_type
2090,right-handed,incompatible,NA,2074,right,23,ich habe einmal p gedrückt gehalten beim 3. versuch :(,1,1596490335579,small,169,other,q,p,p,deutsch,NA,NA,small,images/stimulus_small.jpg,large,NA,Mon Aug 03 2020 14:11:11 GMT-0700 (Nordamerikanische Westküsten-Sommerzeit),1596489071438,Yes,21.069016666666666,1,training_trials_incompatible
2090,right-handed,incompatible,NA,1271,left,23,ich habe einmal p gedrückt gehalten beim 3. versuch :(,1,1596490335579,large,169,other,q,p,q,deutsch,NA,NA,small,images/stimulus_large.jpg,large,NA,Mon Aug 03 2020 14:11:11 GMT-0700 (Nordamerikanische Westküsten-Sommerzeit),1596489071438,Yes,21.069016666666666,2,training_trials_incompatible
2090,right-handed,incompatible,NA,941,right,23,ich habe einmal p gedrückt gehalten beim 3. versuch :(,1,1596490335579,small,169,other,q,p,p,deutsch,NA,NA,small,images/stimulus_small.jpg,large,NA,Mon Aug 03 2020 14:11:11 GMT-0700 (Nordamerikanische Westküsten-Sommerzeit),1596489071438,Yes,21.069016666666666,3,training_trials_incompatible
2090,right-handed,incompatible,NA,601,left,23,ich habe einmal p gedrückt gehalten beim 3. versuch :(,1,1596490335579,large,169,other,q,p,q,deutsch,NA,NA,small,images/stimulus_large.jpg,large,NA,Mon Aug 03 2020 14:11:11 GMT-0700 (Nordamerikanische Westküsten-Sommerzeit),1596489071438,Yes,21.069016666666666,4,training_trials_incompatible
2090,right-handed,incompatible,NA,736,right,23,ich habe einmal p gedrückt gehalten beim 3. versuch :(,1,1596490335579,small,169,other,q,p,p,deutsch,NA,NA,small,images/stimulus_small.jpg,large,NA,Mon Aug 03 2020 14:11:11 GMT-0700 (Nordamerikanische Westküsten-Sommerzeit),1596489071438,Yes,21.069016666666666,5,training_trials_incompatible
2090,right-handed,incompatible,NA,618,right,23,ich habe einmal p gedrückt gehalten beim 3. versuch :(,1,1596490335579,small,169,other,q,p,p,deutsch,NA,NA,small,images/stimulus_small.jpg,large,NA,Mon Aug 03 2020 14:11:11 GMT-0700 (Nordamerikanische Westküsten-Sommerzeit),1596489071438,Yes,21.069016666666666,6,training_trials_incompatible
2090,right-handed,incompatible,NA,507,left,23,ich habe einmal p gedrückt gehalten beim 3. versuch :(,1,1596490335579,large,169,other,q,p,q,deutsch,NA,NA,small,images/stimulus_large.jpg,large,NA,Mon Aug 03 2020 14:11:11 GMT-0700 (Nordamerikanische Westküsten-Sommerzeit),1596489071438,Yes,21.069016666666666,7,training_trials_incompatible
2090,right-handed,incompatible,NA,596,right,23,ich habe einmal p gedrückt gehalten beim 3. versuch :(,1,1596490335579,small,169,other,q,p,p,deutsch,NA,NA,small,images/stimulus_small.jpg,large,NA,Mon Aug 03 2020 14:11:11 GMT-0700 (Nordamerikanische Westküsten-Sommerzeit),1596489071438,Yes,21.069016666666666,8,training_trials_incompatible
2090,right-handed,incompatible,NA,436,left,23,ich habe einmal p gedrückt gehalten beim 3. versuch :(,1,1596490335579,large,169,other,q,p,q,deutsch,NA,NA,small,images/stimulus_large.jpg,large,NA,Mon Aug 03 2020 14:11:11 GMT-0700 (Nordamerikanische Westküsten-Sommerzeit),1596489071438,Yes,21.069016666666666,9,training_trials_incompatible
2090,right-handed,incompatible,NA,572,left,23,ich habe einmal p gedrückt gehalten beim 3. versuch :(,1,1596490335579,large,169,other,q,p,q,deutsch,NA,NA,small,images/stimulus_large.jpg,large,NA,Mon Aug 03 2020 14:11:11 GMT-0700 (Nordamerikanische Westküsten-Sommerzeit),1596489071438,Yes,21.069016666666666,10,training_trials_incompatible
2090,right-handed,incompatible,NA,480,right,23,ich habe einmal p gedrückt gehalten beim 3. versuch :(,1,1596490335579,small,169,other,q,p,p,deutsch,NA,NA,small,images/stimulus_small.jpg,large,NA,Mon Aug 03 2020 14:11:11 GMT-0700 (Nordamerikanische Westküsten-Sommerzeit),1596489071438,Yes,21.069016666666666,1,experimental_trials_incompatible
2090,right-handed,incompatible,NA,441,left,23,ich habe einmal p gedrückt gehalten beim 3. versuch :(,1,1596490335579,large,169,other,q,p,q,deutsch,NA,NA,small,images/stimulus_large.jpg,large,NA,Mon Aug 03 2020 14:11:11 GMT-0700 (Nordamerikanische Westküsten-Sommerzeit),1596489071438,Yes,21.069016666666666,2,experimental_trials_incompatible
2090,right-handed,incompatible,NA,403,right,23,ich habe einmal p gedrückt gehalten beim 3. versuch :(,1,1596490335579,small,169,other,q,p,p,deutsch,NA,NA,small,images/stimulus_small.jpg,large,NA,Mon Aug 03 2020 14:11:11 GMT-0700 (Nordamerikanische Westküsten-Sommerzeit),1596489071438,Yes,21.069016666666666,3,experimental_trials_incompatible
2090,right-handed,incompatible,NA,331,left,23,ich habe einmal p gedrückt gehalten beim 3. versuch :(,1,1596490335579,large,169,other,q,p,q,deutsch,NA,NA,small,images/stimulus_large.jpg,large,NA,Mon Aug 03 2020 14:11:11 GMT-0700 (Nordamerikanische Westküsten-Sommerzeit),1596489071438,Yes,21.069016666666666,4,experimental_trials_incompatible
2090,right-handed,incompatible,NA,672,right,23,ich habe einmal p gedrückt gehalten beim 3. versuch :(,1,1596490335579,small,169,other,q,p,p,deutsch,NA,NA,small,images/stimulus_small.jpg,large,NA,Mon Aug 03 2020 14:11:11 GMT-0700 (Nordamerikanische Westküsten-Sommerzeit),1596489071438,Yes,21.069016666666666,5,experimental_trials_incompatible
2090,right-handed,incompatible,NA,572,left,23,ich habe einmal p gedrückt gehalten beim 3. versuch :(,1,1596490335579,large,169,other,q,p,q,deutsch,NA,NA,small,images/stimulus_large.jpg,large,NA,Mon Aug 03 2020 14:11:11 GMT-0700 (Nordamerikanische Westküsten-Sommerzeit),1596489071438,Yes,21.069016666666666,6,experimental_trials_incompatible
2090,right-handed,incompatible,NA,533,right,23,ich habe einmal p gedrückt gehalten beim 3. versuch :(,1,1596490335579,small,169,other,q,p,p,deutsch,NA,NA,small,images/stimulus_small.jpg,large,NA,Mon Aug 03 2020 14:11:11 GMT-0700 (Nordamerikanische Westküsten-Sommerzeit),1596489071438,Yes,21.069016666666666,7,experimental_trials_incompatible
2090,right-handed,incompatible,NA,576,right,23,ich habe einmal p gedrückt gehalten beim 3. versuch :(,1,1596490335579,small,169,other,q,p,p,deutsch,NA,NA,small,images/stimulus_small.jpg,large,NA,Mon Aug 03 2020 14:11:11 GMT-0700 (Nordamerikanische Westküsten-Sommerzeit),1596489071438,Yes,21.069016666666666,8,experimental_trials_incompatible
2090,right-handed,incompatible,NA,447,left,23,ich habe einmal p gedrückt gehalten beim 3. versuch :(,1,1596490335579,large,169,other,q,p,q,deutsch,NA,NA,small,images/stimulus_large.jpg,large,NA,Mon Aug 03 2020 14:11:11 GMT-0700 (Nordamerikanische Westküsten-Sommerzeit),1596489071438,Yes,21.069016666666666,9,experimental_trials_incompatible
2090,right-handed,incompatible,NA,627,right,23,ich habe einmal p gedrückt gehalten beim 3. versuch :(,1,1596490335579,small,169,other,q,p,p,deutsch,NA,NA,small,images/stimulus_small.jpg,large,NA,Mon Aug 03 2020 14:11:11 GMT-0700 (Nordamerikanische Westküsten-Sommerzeit),1596489071438,Yes,21.069016666666666,10,experimental_trials_incompatible
2090,right-handed,incompatible,NA,337,left,23,ich habe einmal p gedrückt gehalten beim 3. versuch :(,1,1596490335579,large,169,other,q,p,q,deutsch,NA,NA,small,images/stimulus_large.jpg,large,NA,Mon Aug 03 2020 14:11:11 GMT-0700 (Nordamerikanische Westküsten-Sommerzeit),1596489071438,Yes,21.069016666666666,11,experimental_trials_incompatible
2090,right-handed,incompatible,NA,479,left,23,ich habe einmal p gedrückt gehalten beim 3. versuch :(,1,1596490335579,large,169,other,q,p,q,deutsch,NA,NA,small,images/stimulus_large.jpg,large,NA,Mon Aug 03 2020 14:11:11 GMT-0700 (Nordamerikanische Westküsten-Sommerzeit),1596489071438,Yes,21.069016666666666,12,experimental_trials_incompatible
2090,right-handed,incompatible,NA,408,left,23,ich habe einmal p gedrückt gehalten beim 3. versuch :(,1,1596490335579,large,169,other,q,p,q,deutsch,NA,NA,small,images/stimulus_large.jpg,large,NA,Mon Aug 03 2020 14:11:11 GMT-0700 (Nordamerikanische Westküsten-Sommerzeit),1596489071438,Yes,21.069016666666666,13,experimental_trials_incompatible
2090,right-handed,incompatible,NA,452,right,23,ich habe einmal p gedrückt gehalten beim 3. versuch :(,1,1596490335579,small,169,other,q,p,p,deutsch,NA,NA,small,images/stimulus_small.jpg,large,NA,Mon Aug 03 2020 14:11:11 GMT-0700 (Nordamerikanische Westküsten-Sommerzeit),1596489071438,Yes,21.069016666666666,14,experimental_trials_incompatible
2090,right-handed,incompatible,NA,433,left,23,ich habe einmal p gedrückt gehalten beim 3. versuch :(,1,1596490335579,large,169,other,q,p,q,deutsch,NA,NA,small,images/stimulus_large.jpg,large,NA,Mon Aug 03 2020 14:11:11 GMT-0700 (Nordamerikanische Westküsten-Sommerzeit),1596489071438,Yes,21.069016666666666,15,experimental_trials_incompatible
2090,right-handed,incompatible,NA,425,left,23,ich habe einmal p gedrückt gehalten beim 3. versuch :(,1,1596490335579,large,169,other,q,p,q,deutsch,NA,NA,small,images/stimulus_large.jpg,large,NA,Mon Aug 03 2020 14:11:11 GMT-0700 (Nordamerikanische Westküsten-Sommerzeit),1596489071438,Yes,21.069016666666666,16,experimental_trials_incompatible
2090,right-handed,incompatible,NA,619,left,23,ich habe einmal p gedrückt gehalten beim 3. versuch :(,1,1596490335579,large,169,other,q,p,q,deutsch,NA,NA,small,images/stimulus_large.jpg,large,NA,Mon Aug 03 2020 14:11:11 GMT-0700 (Nordamerikanische Westküsten-Sommerzeit),1596489071438,Yes,21.069016666666666,17,experimental_trials_incompatible
2090,right-handed,incompatible,NA,574,right,23,ich habe einmal p gedrückt gehalten beim 3. versuch :(,1,1596490335579,small,169,other,q,p,p,deutsch,NA,NA,small,images/stimulus_small.jpg,large,NA,Mon Aug 03 2020 14:11:11 GMT-0700 (Nordamerikanische Westküsten-Sommerzeit),1596489071438,Yes,21.069016666666666,18,experimental_trials_incompatible
2090,right-handed,incompatible,NA,617,left,23,ich habe einmal p gedrückt gehalten beim 3. versuch :(,1,1596490335579,large,169,other,q,p,q,deutsch,NA,NA,small,images/stimulus_large.jpg,large,NA,Mon Aug 03 2020 14:11:11 GMT-0700 (Nordamerikanische Westküsten-Sommerzeit),1596489071438,Yes,21.069016666666666,19,experimental_trials_incompatible
2090,right-handed,incompatible,NA,377,left,23,ich habe einmal p gedrückt gehalten beim 3. versuch :(,1,1596490335579,large,169,other,q,p,q,deutsch,NA,NA,small,images/stimulus_large.jpg,large,NA,Mon Aug 03 2020 14:11:11 GMT-0700 (Nordamerikanische Westküsten-Sommerzeit),1596489071438,Yes,21.069016666666666,20,experimental_trials_incompatible
2090,right-handed,incompatible,NA,427,left,23,ich habe einmal p gedrückt gehalten beim 3. versuch :(,1,1596490335579,large,169,other,q,p,q,deutsch,NA,NA,small,images/stimulus_large.jpg,large,NA,Mon Aug 03 2020 14:11:11 GMT-0700 (Nordamerikanische Westküsten-Sommerzeit),1596489071438,Yes,21.069016666666666,21,experimental_trials_incompatible
2090,right-handed,incompatible,NA,395,left,23,ich habe einmal p gedrückt gehalten beim 3. versuch :(,1,1596490335579,large,169,other,q,p,q,deutsch,NA,NA,small,images/stimulus_large.jpg,large,NA,Mon Aug 03 2020 14:11:11 GMT-0700 (Nordamerikanische Westküsten-Sommerzeit),1596489071438,Yes,21.069016666666666,22,experimental_trials_incompatible
2090,right-handed,incompatible,NA,322,left,23,ich habe einmal p gedrückt gehalten beim 3. versuch :(,1,1596490335579,large,169,other,q,p,q,deutsch,NA,NA,small,images/stimulus_large.jpg,large,NA,Mon Aug 03 2020 14:11:11 GMT-0700 (Nordamerikanische Westküsten-Sommerzeit),1596489071438,Yes,21.069016666666666,23,experimental_trials_incompatible
2090,right-handed,incompatible,NA,508,right,23,ich habe einmal p gedrückt gehalten beim 3. versuch :(,1,1596490335579,small,169,other,q,p,p,deutsch,NA,NA,small,images/stimulus_small.jpg,large,NA,Mon Aug 03 2020 14:11:11 GMT-0700 (Nordamerikanische Westküsten-Sommerzeit),1596489071438,Yes,21.069016666666666,24,experimental_trials_incompatible
2090,right-handed,incompatible,NA,558,right,23,ich habe einmal p gedrückt gehalten beim 3. versuch :(,1,1596490335579,small,169,other,q,p,p,deutsch,NA,NA,small,images/stimulus_small.jpg,large,NA,Mon Aug 03 2020 14:11:11 GMT-0700 (Nordamerikanische Westküsten-Sommerzeit),1596489071438,Yes,21.069016666666666,25,experimental_trials_incompatible
2090,right-handed,incompatible,NA,367,right,23,ich habe einmal p gedrückt gehalten beim 3. versuch :(,1,1596490335579,small,169,other,q,p,p,deutsch,NA,NA,small,images/stimulus_small.jpg,large,NA,Mon Aug 03 2020 14:11:11 GMT-0700 (Nordamerikanische Westküsten-Sommerzeit),1596489071438,Yes,21.069016666666666,26,experimental_trials_incompatible
2090,right-handed,incompatible,NA,368,left,23,ich habe einmal p gedrückt gehalten beim 3. versuch :(,1,1596490335579,large,169,other,q,p,q,deutsch,NA,NA,small,images/stimulus_large.jpg,large,NA,Mon Aug 03 2020 14:11:11 GMT-0700 (Nordamerikanische Westküsten-Sommerzeit),1596489071438,Yes,21.069016666666666,27,experimental_trials_incompatible
2090,right-handed,incompatible,NA,448,right,23,ich habe einmal p gedrückt gehalten beim 3. versuch :(,1,1596490335579,small,169,other,q,p,p,deutsch,NA,NA,small,images/stimulus_small.jpg,large,NA,Mon Aug 03 2020 14:11:11 GMT-0700 (Nordamerikanische Westküsten-Sommerzeit),1596489071438,Yes,21.069016666666666,28,experimental_trials_incompatible
2090,right-handed,incompatible,NA,362,left,23,ich habe einmal p gedrückt gehalten beim 3. versuch :(,1,1596490335579,large,169,other,q,p,q,deutsch,NA,NA,small,images/stimulus_large.jpg,large,NA,Mon Aug 03 2020 14:11:11 GMT-0700 (Nordamerikanische Westküsten-Sommerzeit),1596489071438,Yes,21.069016666666666,29,experimental_trials_incompatible
2090,right-handed,incompatible,NA,533,right,23,ich habe einmal p gedrückt gehalten beim 3. versuch :(,1,1596490335579,small,169,other,q,p,p,deutsch,NA,NA,small,images/stimulus_small.jpg,large,NA,Mon Aug 03 2020 14:11:11 GMT-0700 (Nordamerikanische Westküsten-Sommerzeit),1596489071438,Yes,21.069016666666666,30,experimental_trials_incompatible
2090,right-handed,incompatible,NA,428,right,23,ich habe einmal p gedrückt gehalten beim 3. versuch :(,1,1596490335579,small,169,other,q,p,p,deutsch,NA,NA,small,images/stimulus_small.jpg,large,NA,Mon Aug 03 2020 14:11:11 GMT-0700 (Nordamerikanische Westküsten-Sommerzeit),1596489071438,Yes,21.069016666666666,31,experimental_trials_incompatible
2090,right-handed,incompatible,NA,493,right,23,ich habe einmal p gedrückt gehalten beim 3. versuch :(,1,1596490335579,small,169,other,q,p,p,deutsch,NA,NA,small,images/stimulus_small.jpg,large,NA,Mon Aug 03 2020 14:11:11 GMT-0700 (Nordamerikanische Westküsten-Sommerzeit),1596489071438,Yes,21.069016666666666,32,experimental_trials_incompatible
2090,right-handed,incompatible,NA,507,right,23,ich habe einmal p gedrückt gehalten beim 3. versuch :(,1,1596490335579,small,169,other,q,p,p,deutsch,NA,NA,small,images/stimulus_small.jpg,large,NA,Mon Aug 03 2020 14:11:11 GMT-0700 (Nordamerikanische Westküsten-Sommerzeit),1596489071438,Yes,21.069016666666666,33,experimental_trials_incompatible
2090,right-handed,incompatible,NA,452,right,23,ich habe einmal p gedrückt gehalten beim 3. versuch :(,1,1596490335579,small,169,other,q,p,p,deutsch,NA,NA,small,images/stimulus_small.jpg,large,NA,Mon Aug 03 2020 14:11:11 GMT-0700 (Nordamerikanische Westküsten-Sommerzeit),1596489071438,Yes,21.069016666666666,34,experimental_trials_incompatible
2090,right-handed,incompatible,NA,418,left,23,ich habe einmal p gedrückt gehalten beim 3. versuch :(,1,1596490335579,large,169,other,q,p,q,deutsch,NA,NA,small,images/stimulus_large.jpg,large,NA,Mon Aug 03 2020 14:11:11 GMT-0700 (Nordamerikanische Westküsten-Sommerzeit),1596489071438,Yes,21.069016666666666,35,experimental_trials_incompatible
2090,right-handed,incompatible,NA,458,right,23,ich habe einmal p gedrückt gehalten beim 3. versuch :(,1,1596490335579,small,169,other,q,p,p,deutsch,NA,NA,small,images/stimulus_small.jpg,large,NA,Mon Aug 03 2020 14:11:11 GMT-0700 (Nordamerikanische Westküsten-Sommerzeit),1596489071438,Yes,21.069016666666666,36,experimental_trials_incompatible
2090,right-handed,incompatible,NA,412,left,23,ich habe einmal p gedrückt gehalten beim 3. versuch :(,1,1596490335579,large,169,other,q,p,q,deutsch,NA,NA,small,images/stimulus_large.jpg,large,NA,Mon Aug 03 2020 14:11:11 GMT-0700 (Nordamerikanische Westküsten-Sommerzeit),1596489071438,Yes,21.069016666666666,37,experimental_trials_incompatible
2090,right-handed,incompatible,NA,443,right,23,ich habe einmal p gedrückt gehalten beim 3. versuch :(,1,1596490335579,small,169,other,q,p,p,deutsch,NA,NA,small,images/stimulus_small.jpg,large,NA,Mon Aug 03 2020 14:11:11 GMT-0700 (Nordamerikanische Westküsten-Sommerzeit),1596489071438,Yes,21.069016666666666,38,experimental_trials_incompatible
2090,right-handed,incompatible,NA,423,left,23,ich habe einmal p gedrückt gehalten beim 3. versuch :(,1,1596490335579,large,169,other,q,p,q,deutsch,NA,NA,small,images/stimulus_large.jpg,large,NA,Mon Aug 03 2020 14:11:11 GMT-0700 (Nordamerikanische Westküsten-Sommerzeit),1596489071438,Yes,21.069016666666666,39,experimental_trials_incompatible
2090,right-handed,incompatible,NA,433,left,23,ich habe einmal p gedrückt gehalten beim 3. versuch :(,1,1596490335579,large,169,other,q,p,q,deutsch,NA,NA,small,images/stimulus_large.jpg,large,NA,Mon Aug 03 2020 14:11:11 GMT-0700 (Nordamerikanische Westküsten-Sommerzeit),1596489071438,Yes,21.069016666666666,40,experimental_trials_incompatible
2090,right-handed,incompatible,NA,472,right,23,ich habe einmal p gedrückt gehalten beim 3. versuch :(,1,1596490335579,small,169,other,q,p,p,deutsch,NA,NA,small,images/stimulus_small.jpg,large,NA,Mon Aug 03 2020 14:11:11 GMT-0700 (Nordamerikanische Westküsten-Sommerzeit),1596489071438,Yes,21.069016666666666,41,experimental_trials_incompatible
2090,right-handed,incompatible,NA,394,left,23,ich habe einmal p gedrückt gehalten beim 3. versuch :(,1,1596490335579,large,169,other,q,p,q,deutsch,NA,NA,small,images/stimulus_large.jpg,large,NA,Mon Aug 03 2020 14:11:11 GMT-0700 (Nordamerikanische Westküsten-Sommerzeit),1596489071438,Yes,21.069016666666666,42,experimental_trials_incompatible
2090,right-handed,incompatible,NA,492,left,23,ich habe einmal p gedrückt gehalten beim 3. versuch :(,1,1596490335579,large,169,other,q,p,q,deutsch,NA,NA,small,images/stimulus_large.jpg,large,NA,Mon Aug 03 2020 14:11:11 GMT-0700 (Nordamerikanische Westküsten-Sommerzeit),1596489071438,Yes,21.069016666666666,43,experimental_trials_incompatible
2090,right-handed,incompatible,NA,488,right,23,ich habe einmal p gedrückt gehalten beim 3. versuch :(,1,1596490335579,small,169,other,q,p,p,deutsch,NA,NA,small,images/stimulus_small.jpg,large,NA,Mon Aug 03 2020 14:11:11 GMT-0700 (Nordamerikanische Westküsten-Sommerzeit),1596489071438,Yes,21.069016666666666,44,experimental_trials_incompatible
2090,right-handed,incompatible,NA,378,right,23,ich habe einmal p gedrückt gehalten beim 3. versuch :(,1,1596490335579,small,169,other,q,p,p,deutsch,NA,NA,small,images/stimulus_small.jpg,large,NA,Mon Aug 03 2020 14:11:11 GMT-0700 (Nordamerikanische Westküsten-Sommerzeit),1596489071438,Yes,21.069016666666666,45,experimental_trials_incompatible
2090,right-handed,incompatible,NA,478,right,23,ich habe einmal p gedrückt gehalten beim 3. versuch :(,1,1596490335579,small,169,other,q,p,p,deutsch,NA,NA,small,images/stimulus_small.jpg,large,NA,Mon Aug 03 2020 14:11:11 GMT-0700 (Nordamerikanische Westküsten-Sommerzeit),1596489071438,Yes,21.069016666666666,46,experimental_trials_incompatible
2090,right-handed,incompatible,NA,378,right,23,ich habe einmal p gedrückt gehalten beim 3. versuch :(,1,1596490335579,small,169,other,q,p,p,deutsch,NA,NA,small,images/stimulus_small.jpg,large,NA,Mon Aug 03 2020 14:11:11 GMT-0700 (Nordamerikanische Westküsten-Sommerzeit),1596489071438,Yes,21.069016666666666,47,experimental_trials_incompatible
2090,right-handed,incompatible,NA,326,left,23,ich habe einmal p gedrückt gehalten beim 3. versuch :(,1,1596490335579,large,169,other,q,p,q,deutsch,NA,NA,small,images/stimulus_large.jpg,large,NA,Mon Aug 03 2020 14:11:11 GMT-0700 (Nordamerikanische Westküsten-Sommerzeit),1596489071438,Yes,21.069016666666666,48,experimental_trials_incompatible
2090,right-handed,incompatible,NA,517,left,23,ich habe einmal p gedrückt gehalten beim 3. versuch :(,1,1596490335579,large,169,other,q,p,q,deutsch,NA,NA,small,images/stimulus_large.jpg,large,NA,Mon Aug 03 2020 14:11:11 GMT-0700 (Nordamerikanische Westküsten-Sommerzeit),1596489071438,Yes,21.069016666666666,49,experimental_trials_incompatible
2090,right-handed,incompatible,NA,451,left,23,ich habe einmal p gedrückt gehalten beim 3. versuch :(,1,1596490335579,large,169,other,q,p,q,deutsch,NA,NA,small,images/stimulus_large.jpg,large,NA,Mon Aug 03 2020 14:11:11 GMT-0700 (Nordamerikanische Westküsten-Sommerzeit),1596489071438,Yes,21.069016666666666,50,experimental_trials_incompatible
2090,right-handed,incompatible,NA,432,left,23,ich habe einmal p gedrückt gehalten beim 3. versuch :(,1,1596490335579,large,169,other,q,p,q,deutsch,NA,NA,small,images/stimulus_large.jpg,large,NA,Mon Aug 03 2020 14:11:11 GMT-0700 (Nordamerikanische Westküsten-Sommerzeit),1596489071438,Yes,21.069016666666666,51,experimental_trials_incompatible
2090,right-handed,incompatible,NA,438,right,23,ich habe einmal p gedrückt gehalten beim 3. versuch :(,1,1596490335579,small,169,other,q,p,p,deutsch,NA,NA,small,images/stimulus_small.jpg,large,NA,Mon Aug 03 2020 14:11:11 GMT-0700 (Nordamerikanische Westküsten-Sommerzeit),1596489071438,Yes,21.069016666666666,52,experimental_trials_incompatible
2090,right-handed,incompatible,NA,436,left,23,ich habe einmal p gedrückt gehalten beim 3. versuch :(,1,1596490335579,large,169,other,q,p,q,deutsch,NA,NA,small,images/stimulus_large.jpg,large,NA,Mon Aug 03 2020 14:11:11 GMT-0700 (Nordamerikanische Westküsten-Sommerzeit),1596489071438,Yes,21.069016666666666,53,experimental_trials_incompatible
2090,right-handed,incompatible,NA,523,right,23,ich habe einmal p gedrückt gehalten beim 3. versuch :(,1,1596490335579,small,169,other,q,p,p,deutsch,NA,NA,small,images/stimulus_small.jpg,large,NA,Mon Aug 03 2020 14:11:11 GMT-0700 (Nordamerikanische Westküsten-Sommerzeit),1596489071438,Yes,21.069016666666666,54,experimental_trials_incompatible
2090,right-handed,incompatible,NA,407,right,23,ich habe einmal p gedrückt gehalten beim 3. versuch :(,1,1596490335579,small,169,other,q,p,p,deutsch,NA,NA,small,images/stimulus_small.jpg,large,NA,Mon Aug 03 2020 14:11:11 GMT-0700 (Nordamerikanische Westküsten-Sommerzeit),1596489071438,Yes,21.069016666666666,55,experimental_trials_incompatible
2090,right-handed,incompatible,NA,368,left,23,ich habe einmal p gedrückt gehalten beim 3. versuch :(,1,1596490335579,large,169,other,q,p,q,deutsch,NA,NA,small,images/stimulus_large.jpg,large,NA,Mon Aug 03 2020 14:11:11 GMT-0700 (Nordamerikanische Westküsten-Sommerzeit),1596489071438,Yes,21.069016666666666,56,experimental_trials_incompatible
2090,right-handed,incompatible,NA,443,left,23,ich habe einmal p gedrückt gehalten beim 3. versuch :(,1,1596490335579,large,169,other,q,p,q,deutsch,NA,NA,small,images/stimulus_large.jpg,large,NA,Mon Aug 03 2020 14:11:11 GMT-0700 (Nordamerikanische Westküsten-Sommerzeit),1596489071438,Yes,21.069016666666666,57,experimental_trials_incompatible
2090,right-handed,incompatible,NA,482,right,23,ich habe einmal p gedrückt gehalten beim 3. versuch :(,1,1596490335579,small,169,other,q,p,p,deutsch,NA,NA,small,images/stimulus_small.jpg,large,NA,Mon Aug 03 2020 14:11:11 GMT-0700 (Nordamerikanische Westküsten-Sommerzeit),1596489071438,Yes,21.069016666666666,58,experimental_trials_incompatible
2090,right-handed,incompatible,NA,381,right,23,ich habe einmal p gedrückt gehalten beim 3. versuch :(,1,1596490335579,small,169,other,q,p,p,deutsch,NA,NA,small,images/stimulus_small.jpg,large,NA,Mon Aug 03 2020 14:11:11 GMT-0700 (Nordamerikanische Westküsten-Sommerzeit),1596489071438,Yes,21.069016666666666,59,experimental_trials_incompatible
2090,right-handed,incompatible,NA,416,right,23,ich habe einmal p gedrückt gehalten beim 3. versuch :(,1,1596490335579,small,169,other,q,p,p,deutsch,NA,NA,small,images/stimulus_small.jpg,large,NA,Mon Aug 03 2020 14:11:11 GMT-0700 (Nordamerikanische Westküsten-Sommerzeit),1596489071438,Yes,21.069016666666666,60,experimental_trials_incompatible
2090,right-handed,NA,,2734,triangle,23,ich habe einmal p gedrückt gehalten beim 3. versuch :(,1,1596490335579,triangle,169,other,NA,NA,NA,deutsch,circle,triangle,NA,images/triangle.jpg,NA,,Mon Aug 03 2020 14:11:11 GMT-0700 (Nordamerikanische Westküsten-Sommerzeit),1596489071438,Yes,21.069016666666666,1,distractor_trials
2090,right-handed,NA,,1041,triangle,23,ich habe einmal p gedrückt gehalten beim 3. versuch :(,1,1596490335579,triangle,169,other,NA,NA,NA,deutsch,circle,triangle,NA,images/triangle.jpg,NA,,Mon Aug 03 2020 14:11:11 GMT-0700 (Nordamerikanische Westküsten-Sommerzeit),1596489071438,Yes,21.069016666666666,2,distractor_trials
2090,right-handed,NA,,1042,triangle,23,ich habe einmal p gedrückt gehalten beim 3. versuch :(,1,1596490335579,triangle,169,other,NA,NA,NA,deutsch,circle,triangle,NA,images/triangle.jpg,NA,,Mon Aug 03 2020 14:11:11 GMT-0700 (Nordamerikanische Westküsten-Sommerzeit),1596489071438,Yes,21.069016666666666,3,distractor_trials
2090,right-handed,NA,,975,triangle,23,ich habe einmal p gedrückt gehalten beim 3. versuch :(,1,1596490335579,triangle,169,other,NA,NA,NA,deutsch,circle,triangle,NA,images/triangle.jpg,NA,,Mon Aug 03 2020 14:11:11 GMT-0700 (Nordamerikanische Westküsten-Sommerzeit),1596489071438,Yes,21.069016666666666,4,distractor_trials
2090,right-handed,NA,,1362,triangle,23,ich habe einmal p gedrückt gehalten beim 3. versuch :(,1,1596490335579,triangle,169,other,NA,NA,NA,deutsch,circle,triangle,NA,images/triangle.jpg,NA,,Mon Aug 03 2020 14:11:11 GMT-0700 (Nordamerikanische Westküsten-Sommerzeit),1596489071438,Yes,21.069016666666666,5,distractor_trials
2090,right-handed,NA,,877,triangle,23,ich habe einmal p gedrückt gehalten beim 3. versuch :(,1,1596490335579,triangle,169,other,NA,NA,NA,deutsch,circle,triangle,NA,images/triangle.jpg,NA,,Mon Aug 03 2020 14:11:11 GMT-0700 (Nordamerikanische Westküsten-Sommerzeit),1596489071438,Yes,21.069016666666666,6,distractor_trials
2090,right-handed,NA,,1034,triangle,23,ich habe einmal p gedrückt gehalten beim 3. versuch :(,1,1596490335579,triangle,169,other,NA,NA,NA,deutsch,circle,triangle,NA,images/triangle.jpg,NA,,Mon Aug 03 2020 14:11:11 GMT-0700 (Nordamerikanische Westküsten-Sommerzeit),1596489071438,Yes,21.069016666666666,7,distractor_trials
2090,right-handed,NA,,1039,circle,23,ich habe einmal p gedrückt gehalten beim 3. versuch :(,1,1596490335579,circle,169,other,NA,NA,NA,deutsch,circle,triangle,NA,images/circle.jpg,NA,,Mon Aug 03 2020 14:11:11 GMT-0700 (Nordamerikanische Westküsten-Sommerzeit),1596489071438,Yes,21.069016666666666,8,distractor_trials
2090,right-handed,NA,,672,circle,23,ich habe einmal p gedrückt gehalten beim 3. versuch :(,1,1596490335579,circle,169,other,NA,NA,NA,deutsch,circle,triangle,NA,images/circle.jpg,NA,,Mon Aug 03 2020 14:11:11 GMT-0700 (Nordamerikanische Westküsten-Sommerzeit),1596489071438,Yes,21.069016666666666,9,distractor_trials
2090,right-handed,NA,,734,circle,23,ich habe einmal p gedrückt gehalten beim 3. versuch :(,1,1596490335579,circle,169,other,NA,NA,NA,deutsch,circle,triangle,NA,images/circle.jpg,NA,,Mon Aug 03 2020 14:11:11 GMT-0700 (Nordamerikanische Westküsten-Sommerzeit),1596489071438,Yes,21.069016666666666,10,distractor_trials
2090,right-handed,NA,,776,triangle,23,ich habe einmal p gedrückt gehalten beim 3. versuch :(,1,1596490335579,triangle,169,other,NA,NA,NA,deutsch,circle,triangle,NA,images/triangle.jpg,NA,,Mon Aug 03 2020 14:11:11 GMT-0700 (Nordamerikanische Westküsten-Sommerzeit),1596489071438,Yes,21.069016666666666,11,distractor_trials
2090,right-handed,NA,,1198,circle,23,ich habe einmal p gedrückt gehalten beim 3. versuch :(,1,1596490335579,circle,169,other,NA,NA,NA,deutsch,circle,triangle,NA,images/circle.jpg,NA,,Mon Aug 03 2020 14:11:11 GMT-0700 (Nordamerikanische Westküsten-Sommerzeit),1596489071438,Yes,21.069016666666666,12,distractor_trials
2090,right-handed,NA,,763,triangle,23,ich habe einmal p gedrückt gehalten beim 3. versuch :(,1,1596490335579,triangle,169,other,NA,NA,NA,deutsch,circle,triangle,NA,images/triangle.jpg,NA,,Mon Aug 03 2020 14:11:11 GMT-0700 (Nordamerikanische Westküsten-Sommerzeit),1596489071438,Yes,21.069016666666666,13,distractor_trials
2090,right-handed,NA,,898,circle,23,ich habe einmal p gedrückt gehalten beim 3. versuch :(,1,1596490335579,circle,169,other,NA,NA,NA,deutsch,circle,triangle,NA,images/circle.jpg,NA,,Mon Aug 03 2020 14:11:11 GMT-0700 (Nordamerikanische Westküsten-Sommerzeit),1596489071438,Yes,21.069016666666666,14,distractor_trials
2090,right-handed,NA,,1044,circle,23,ich habe einmal p gedrückt gehalten beim 3. versuch :(,1,1596490335579,circle,169,other,NA,NA,NA,deutsch,circle,triangle,NA,images/circle.jpg,NA,,Mon Aug 03 2020 14:11:11 GMT-0700 (Nordamerikanische Westküsten-Sommerzeit),1596489071438,Yes,21.069016666666666,15,distractor_trials
2090,right-handed,NA,,805,circle,23,ich habe einmal p gedrückt gehalten beim 3. versuch :(,1,1596490335579,circle,169,other,NA,NA,NA,deutsch,circle,triangle,NA,images/circle.jpg,NA,,Mon Aug 03 2020 14:11:11 GMT-0700 (Nordamerikanische Westküsten-Sommerzeit),1596489071438,Yes,21.069016666666666,16,distractor_trials
2090,right-handed,NA,,891,triangle,23,ich habe einmal p gedrückt gehalten beim 3. versuch :(,1,1596490335579,triangle,169,other,NA,NA,NA,deutsch,circle,triangle,NA,images/triangle.jpg,NA,,Mon Aug 03 2020 14:11:11 GMT-0700 (Nordamerikanische Westküsten-Sommerzeit),1596489071438,Yes,21.069016666666666,17,distractor_trials
2090,right-handed,NA,,806,circle,23,ich habe einmal p gedrückt gehalten beim 3. versuch :(,1,1596490335579,circle,169,other,NA,NA,NA,deutsch,circle,triangle,NA,images/circle.jpg,NA,,Mon Aug 03 2020 14:11:11 GMT-0700 (Nordamerikanische Westküsten-Sommerzeit),1596489071438,Yes,21.069016666666666,18,distractor_trials
2090,right-handed,NA,,613,circle,23,ich habe einmal p gedrückt gehalten beim 3. versuch :(,1,1596490335579,circle,169,other,NA,NA,NA,deutsch,circle,triangle,NA,images/circle.jpg,NA,,Mon Aug 03 2020 14:11:11 GMT-0700 (Nordamerikanische Westküsten-Sommerzeit),1596489071438,Yes,21.069016666666666,19,distractor_trials
2090,right-handed,NA,,948,circle,23,ich habe einmal p gedrückt gehalten beim 3. versuch :(,1,1596490335579,circle,169,other,NA,NA,NA,deutsch,circle,triangle,NA,images/circle.jpg,NA,,Mon Aug 03 2020 14:11:11 GMT-0700 (Nordamerikanische Westküsten-Sommerzeit),1596489071438,Yes,21.069016666666666,20,distractor_trials
2090,right-handed,compatible,NA,2640,left,23,ich habe einmal p gedrückt gehalten beim 3. versuch :(,1,1596490335579,small,169,other,q,p,q,deutsch,NA,NA,large,images/stimulus_small.jpg,small,NA,Mon Aug 03 2020 14:11:11 GMT-0700 (Nordamerikanische Westküsten-Sommerzeit),1596489071438,Yes,21.069016666666666,1,training_trials_compatible
2090,right-handed,compatible,NA,703,left,23,ich habe einmal p gedrückt gehalten beim 3. versuch :(,1,1596490335579,small,169,other,q,p,q,deutsch,NA,NA,large,images/stimulus_small.jpg,small,NA,Mon Aug 03 2020 14:11:11 GMT-0700 (Nordamerikanische Westküsten-Sommerzeit),1596489071438,Yes,21.069016666666666,2,training_trials_compatible
2090,right-handed,compatible,NA,501,left,23,ich habe einmal p gedrückt gehalten beim 3. versuch :(,1,1596490335579,small,169,other,q,p,q,deutsch,NA,NA,large,images/stimulus_small.jpg,small,NA,Mon Aug 03 2020 14:11:11 GMT-0700 (Nordamerikanische Westküsten-Sommerzeit),1596489071438,Yes,21.069016666666666,3,training_trials_compatible
2090,right-handed,compatible,NA,561,right,23,ich habe einmal p gedrückt gehalten beim 3. versuch :(,1,1596490335579,large,169,other,q,p,p,deutsch,NA,NA,large,images/stimulus_large.jpg,small,NA,Mon Aug 03 2020 14:11:11 GMT-0700 (Nordamerikanische Westküsten-Sommerzeit),1596489071438,Yes,21.069016666666666,4,training_trials_compatible
2090,right-handed,compatible,NA,535,right,23,ich habe einmal p gedrückt gehalten beim 3. versuch :(,1,1596490335579,large,169,other,q,p,p,deutsch,NA,NA,large,images/stimulus_large.jpg,small,NA,Mon Aug 03 2020 14:11:11 GMT-0700 (Nordamerikanische Westküsten-Sommerzeit),1596489071438,Yes,21.069016666666666,5,training_trials_compatible
2090,right-handed,compatible,NA,508,right,23,ich habe einmal p gedrückt gehalten beim 3. versuch :(,1,1596490335579,large,169,other,q,p,p,deutsch,NA,NA,large,images/stimulus_large.jpg,small,NA,Mon Aug 03 2020 14:11:11 GMT-0700 (Nordamerikanische Westküsten-Sommerzeit),1596489071438,Yes,21.069016666666666,6,training_trials_compatible
2090,right-handed,compatible,NA,442,right,23,ich habe einmal p gedrückt gehalten beim 3. versuch :(,1,1596490335579,large,169,other,q,p,p,deutsch,NA,NA,large,images/stimulus_large.jpg,small,NA,Mon Aug 03 2020 14:11:11 GMT-0700 (Nordamerikanische Westküsten-Sommerzeit),1596489071438,Yes,21.069016666666666,7,training_trials_compatible
2090,right-handed,compatible,NA,491,left,23,ich habe einmal p gedrückt gehalten beim 3. versuch :(,1,1596490335579,small,169,other,q,p,q,deutsch,NA,NA,large,images/stimulus_small.jpg,small,NA,Mon Aug 03 2020 14:11:11 GMT-0700 (Nordamerikanische Westküsten-Sommerzeit),1596489071438,Yes,21.069016666666666,8,training_trials_compatible
2090,right-handed,compatible,NA,443,left,23,ich habe einmal p gedrückt gehalten beim 3. versuch :(,1,1596490335579,small,169,other,q,p,q,deutsch,NA,NA,large,images/stimulus_small.jpg,small,NA,Mon Aug 03 2020 14:11:11 GMT-0700 (Nordamerikanische Westküsten-Sommerzeit),1596489071438,Yes,21.069016666666666,9,training_trials_compatible
2090,right-handed,compatible,NA,411,left,23,ich habe einmal p gedrückt gehalten beim 3. versuch :(,1,1596490335579,small,169,other,q,p,q,deutsch,NA,NA,large,images/stimulus_small.jpg,small,NA,Mon Aug 03 2020 14:11:11 GMT-0700 (Nordamerikanische Westküsten-Sommerzeit),1596489071438,Yes,21.069016666666666,10,training_trials_compatible
2090,right-handed,compatible,NA,1123,left,23,ich habe einmal p gedrückt gehalten beim 3. versuch :(,1,1596490335579,small,169,other,q,p,q,deutsch,NA,NA,large,images/stimulus_small.jpg,small,NA,Mon Aug 03 2020 14:11:11 GMT-0700 (Nordamerikanische Westküsten-Sommerzeit),1596489071438,Yes,21.069016666666666,1,experimental_trials_compatible
2090,right-handed,compatible,NA,602,right,23,ich habe einmal p gedrückt gehalten beim 3. versuch :(,1,1596490335579,large,169,other,q,p,p,deutsch,NA,NA,large,images/stimulus_large.jpg,small,NA,Mon Aug 03 2020 14:11:11 GMT-0700 (Nordamerikanische Westküsten-Sommerzeit),1596489071438,Yes,21.069016666666666,2,experimental_trials_compatible
2090,right-handed,compatible,NA,503,right,23,ich habe einmal p gedrückt gehalten beim 3. versuch :(,1,1596490335579,large,169,other,q,p,p,deutsch,NA,NA,large,images/stimulus_large.jpg,small,NA,Mon Aug 03 2020 14:11:11 GMT-0700 (Nordamerikanische Westküsten-Sommerzeit),1596489071438,Yes,21.069016666666666,3,experimental_trials_compatible
2090,right-handed,compatible,NA,412,left,23,ich habe einmal p gedrückt gehalten beim 3. versuch :(,1,1596490335579,small,169,other,q,p,q,deutsch,NA,NA,large,images/stimulus_small.jpg,small,NA,Mon Aug 03 2020 14:11:11 GMT-0700 (Nordamerikanische Westküsten-Sommerzeit),1596489071438,Yes,21.069016666666666,4,experimental_trials_compatible
2090,right-handed,compatible,NA,397,left,23,ich habe einmal p gedrückt gehalten beim 3. versuch :(,1,1596490335579,small,169,other,q,p,q,deutsch,NA,NA,large,images/stimulus_small.jpg,small,NA,Mon Aug 03 2020 14:11:11 GMT-0700 (Nordamerikanische Westküsten-Sommerzeit),1596489071438,Yes,21.069016666666666,5,experimental_trials_compatible
2090,right-handed,compatible,NA,581,right,23,ich habe einmal p gedrückt gehalten beim 3. versuch :(,1,1596490335579,large,169,other,q,p,p,deutsch,NA,NA,large,images/stimulus_large.jpg,small,NA,Mon Aug 03 2020 14:11:11 GMT-0700 (Nordamerikanische Westküsten-Sommerzeit),1596489071438,Yes,21.069016666666666,6,experimental_trials_compatible
2090,right-handed,compatible,NA,439,left,23,ich habe einmal p gedrückt gehalten beim 3. versuch :(,1,1596490335579,small,169,other,q,p,q,deutsch,NA,NA,large,images/stimulus_small.jpg,small,NA,Mon Aug 03 2020 14:11:11 GMT-0700 (Nordamerikanische Westküsten-Sommerzeit),1596489071438,Yes,21.069016666666666,7,experimental_trials_compatible
2090,right-handed,compatible,NA,379,left,23,ich habe einmal p gedrückt gehalten beim 3. versuch :(,1,1596490335579,small,169,other,q,p,q,deutsch,NA,NA,large,images/stimulus_small.jpg,small,NA,Mon Aug 03 2020 14:11:11 GMT-0700 (Nordamerikanische Westküsten-Sommerzeit),1596489071438,Yes,21.069016666666666,8,experimental_trials_compatible
2090,right-handed,compatible,NA,498,right,23,ich habe einmal p gedrückt gehalten beim 3. versuch :(,1,1596490335579,large,169,other,q,p,p,deutsch,NA,NA,large,images/stimulus_large.jpg,small,NA,Mon Aug 03 2020 14:11:11 GMT-0700 (Nordamerikanische Westküsten-Sommerzeit),1596489071438,Yes,21.069016666666666,9,experimental_trials_compatible
2090,right-handed,compatible,NA,493,left,23,ich habe einmal p gedrückt gehalten beim 3. versuch :(,1,1596490335579,small,169,other,q,p,q,deutsch,NA,NA,large,images/stimulus_small.jpg,small,NA,Mon Aug 03 2020 14:11:11 GMT-0700 (Nordamerikanische Westküsten-Sommerzeit),1596489071438,Yes,21.069016666666666,10,experimental_trials_compatible
2090,right-handed,compatible,NA,517,right,23,ich habe einmal p gedrückt gehalten beim 3. versuch :(,1,1596490335579,large,169,other,q,p,p,deutsch,NA,NA,large,images/stimulus_large.jpg,small,NA,Mon Aug 03 2020 14:11:11 GMT-0700 (Nordamerikanische Westküsten-Sommerzeit),1596489071438,Yes,21.069016666666666,11,experimental_trials_compatible
2090,right-handed,compatible,NA,513,right,23,ich habe einmal p gedrückt gehalten beim 3. versuch :(,1,1596490335579,large,169,other,q,p,p,deutsch,NA,NA,large,images/stimulus_large.jpg,small,NA,Mon Aug 03 2020 14:11:11 GMT-0700 (Nordamerikanische Westküsten-Sommerzeit),1596489071438,Yes,21.069016666666666,12,experimental_trials_compatible
2090,right-handed,compatible,NA,519,right,23,ich habe einmal p gedrückt gehalten beim 3. versuch :(,1,1596490335579,large,169,other,q,p,p,deutsch,NA,NA,large,images/stimulus_large.jpg,small,NA,Mon Aug 03 2020 14:11:11 GMT-0700 (Nordamerikanische Westküsten-Sommerzeit),1596489071438,Yes,21.069016666666666,13,experimental_trials_compatible
2090,right-handed,compatible,NA,373,right,23,ich habe einmal p gedrückt gehalten beim 3. versuch :(,1,1596490335579,large,169,other,q,p,p,deutsch,NA,NA,large,images/stimulus_large.jpg,small,NA,Mon Aug 03 2020 14:11:11 GMT-0700 (Nordamerikanische Westküsten-Sommerzeit),1596489071438,Yes,21.069016666666666,14,experimental_trials_compatible
2090,right-handed,compatible,NA,417,right,23,ich habe einmal p gedrückt gehalten beim 3. versuch :(,1,1596490335579,large,169,other,q,p,p,deutsch,NA,NA,large,images/stimulus_large.jpg,small,NA,Mon Aug 03 2020 14:11:11 GMT-0700 (Nordamerikanische Westküsten-Sommerzeit),1596489071438,Yes,21.069016666666666,15,experimental_trials_compatible
2090,right-handed,compatible,NA,432,left,23,ich habe einmal p gedrückt gehalten beim 3. versuch :(,1,1596490335579,small,169,other,q,p,q,deutsch,NA,NA,large,images/stimulus_small.jpg,small,NA,Mon Aug 03 2020 14:11:11 GMT-0700 (Nordamerikanische Westküsten-Sommerzeit),1596489071438,Yes,21.069016666666666,16,experimental_trials_compatible
2090,right-handed,compatible,NA,423,left,23,ich habe einmal p gedrückt gehalten beim 3. versuch :(,1,1596490335579,small,169,other,q,p,q,deutsch,NA,NA,large,images/stimulus_small.jpg,small,NA,Mon Aug 03 2020 14:11:11 GMT-0700 (Nordamerikanische Westküsten-Sommerzeit),1596489071438,Yes,21.069016666666666,17,experimental_trials_compatible
2090,right-handed,compatible,NA,743,right,23,ich habe einmal p gedrückt gehalten beim 3. versuch :(,1,1596490335579,large,169,other,q,p,p,deutsch,NA,NA,large,images/stimulus_large.jpg,small,NA,Mon Aug 03 2020 14:11:11 GMT-0700 (Nordamerikanische Westküsten-Sommerzeit),1596489071438,Yes,21.069016666666666,18,experimental_trials_compatible
2090,right-handed,compatible,NA,548,left,23,ich habe einmal p gedrückt gehalten beim 3. versuch :(,1,1596490335579,small,169,other,q,p,q,deutsch,NA,NA,large,images/stimulus_small.jpg,small,NA,Mon Aug 03 2020 14:11:11 GMT-0700 (Nordamerikanische Westküsten-Sommerzeit),1596489071438,Yes,21.069016666666666,19,experimental_trials_compatible
2090,right-handed,compatible,NA,625,right,23,ich habe einmal p gedrückt gehalten beim 3. versuch :(,1,1596490335579,large,169,other,q,p,p,deutsch,NA,NA,large,images/stimulus_large.jpg,small,NA,Mon Aug 03 2020 14:11:11 GMT-0700 (Nordamerikanische Westküsten-Sommerzeit),1596489071438,Yes,21.069016666666666,20,experimental_trials_compatible
2090,right-handed,compatible,NA,384,left,23,ich habe einmal p gedrückt gehalten beim 3. versuch :(,1,1596490335579,small,169,other,q,p,q,deutsch,NA,NA,large,images/stimulus_small.jpg,small,NA,Mon Aug 03 2020 14:11:11 GMT-0700 (Nordamerikanische Westküsten-Sommerzeit),1596489071438,Yes,21.069016666666666,21,experimental_trials_compatible
2090,right-handed,compatible,NA,557,left,23,ich habe einmal p gedrückt gehalten beim 3. versuch :(,1,1596490335579,small,169,other,q,p,q,deutsch,NA,NA,large,images/stimulus_small.jpg,small,NA,Mon Aug 03 2020 14:11:11 GMT-0700 (Nordamerikanische Westküsten-Sommerzeit),1596489071438,Yes,21.069016666666666,22,experimental_trials_compatible
2090,right-handed,compatible,NA,427,right,23,ich habe einmal p gedrückt gehalten beim 3. versuch :(,1,1596490335579,large,169,other,q,p,p,deutsch,NA,NA,large,images/stimulus_large.jpg,small,NA,Mon Aug 03 2020 14:11:11 GMT-0700 (Nordamerikanische Westküsten-Sommerzeit),1596489071438,Yes,21.069016666666666,23,experimental_trials_compatible
2090,right-handed,compatible,NA,462,left,23,ich habe einmal p gedrückt gehalten beim 3. versuch :(,1,1596490335579,small,169,other,q,p,q,deutsch,NA,NA,large,images/stimulus_small.jpg,small,NA,Mon Aug 03 2020 14:11:11 GMT-0700 (Nordamerikanische Westküsten-Sommerzeit),1596489071438,Yes,21.069016666666666,24,experimental_trials_compatible
2090,right-handed,compatible,NA,497,left,23,ich habe einmal p gedrückt gehalten beim 3. versuch :(,1,1596490335579,small,169,other,q,p,q,deutsch,NA,NA,large,images/stimulus_small.jpg,small,NA,Mon Aug 03 2020 14:11:11 GMT-0700 (Nordamerikanische Westküsten-Sommerzeit),1596489071438,Yes,21.069016666666666,25,experimental_trials_compatible
2090,right-handed,compatible,NA,408,right,23,ich habe einmal p gedrückt gehalten beim 3. versuch :(,1,1596490335579,large,169,other,q,p,p,deutsch,NA,NA,large,images/stimulus_large.jpg,small,NA,Mon Aug 03 2020 14:11:11 GMT-0700 (Nordamerikanische Westküsten-Sommerzeit),1596489071438,Yes,21.069016666666666,26,experimental_trials_compatible
2090,right-handed,compatible,NA,472,left,23,ich habe einmal p gedrückt gehalten beim 3. versuch :(,1,1596490335579,small,169,other,q,p,q,deutsch,NA,NA,large,images/stimulus_small.jpg,small,NA,Mon Aug 03 2020 14:11:11 GMT-0700 (Nordamerikanische Westküsten-Sommerzeit),1596489071438,Yes,21.069016666666666,27,experimental_trials_compatible
2090,right-handed,compatible,NA,437,right,23,ich habe einmal p gedrückt gehalten beim 3. versuch :(,1,1596490335579,large,169,other,q,p,p,deutsch,NA,NA,large,images/stimulus_large.jpg,small,NA,Mon Aug 03 2020 14:11:11 GMT-0700 (Nordamerikanische Westküsten-Sommerzeit),1596489071438,Yes,21.069016666666666,28,experimental_trials_compatible
2090,right-handed,compatible,NA,392,left,23,ich habe einmal p gedrückt gehalten beim 3. versuch :(,1,1596490335579,small,169,other,q,p,q,deutsch,NA,NA,large,images/stimulus_small.jpg,small,NA,Mon Aug 03 2020 14:11:11 GMT-0700 (Nordamerikanische Westküsten-Sommerzeit),1596489071438,Yes,21.069016666666666,29,experimental_trials_compatible
2090,right-handed,compatible,NA,362,right,23,ich habe einmal p gedrückt gehalten beim 3. versuch :(,1,1596490335579,large,169,other,q,p,p,deutsch,NA,NA,large,images/stimulus_large.jpg,small,NA,Mon Aug 03 2020 14:11:11 GMT-0700 (Nordamerikanische Westküsten-Sommerzeit),1596489071438,Yes,21.069016666666666,30,experimental_trials_compatible
2090,right-handed,compatible,NA,10,right,23,ich habe einmal p gedrückt gehalten beim 3. versuch :(,0,1596490335579,small,169,other,q,p,p,deutsch,NA,NA,large,images/stimulus_small.jpg,small,NA,Mon Aug 03 2020 14:11:11 GMT-0700 (Nordamerikanische Westküsten-Sommerzeit),1596489071438,Yes,21.069016666666666,31,experimental_trials_compatible
2090,right-handed,compatible,NA,2394,right,23,ich habe einmal p gedrückt gehalten beim 3. versuch :(,1,1596490335579,large,169,other,q,p,p,deutsch,NA,NA,large,images/stimulus_large.jpg,small,NA,Mon Aug 03 2020 14:11:11 GMT-0700 (Nordamerikanische Westküsten-Sommerzeit),1596489071438,Yes,21.069016666666666,32,experimental_trials_compatible
2090,right-handed,compatible,NA,522,left,23,ich habe einmal p gedrückt gehalten beim 3. versuch :(,1,1596490335579,small,169,other,q,p,q,deutsch,NA,NA,large,images/stimulus_small.jpg,small,NA,Mon Aug 03 2020 14:11:11 GMT-0700 (Nordamerikanische Westküsten-Sommerzeit),1596489071438,Yes,21.069016666666666,33,experimental_trials_compatible
2090,right-handed,compatible,NA,462,right,23,ich habe einmal p gedrückt gehalten beim 3. versuch :(,1,1596490335579,large,169,other,q,p,p,deutsch,NA,NA,large,images/stimulus_large.jpg,small,NA,Mon Aug 03 2020 14:11:11 GMT-0700 (Nordamerikanische Westküsten-Sommerzeit),1596489071438,Yes,21.069016666666666,34,experimental_trials_compatible
2090,right-handed,compatible,NA,473,right,23,ich habe einmal p gedrückt gehalten beim 3. versuch :(,1,1596490335579,large,169,other,q,p,p,deutsch,NA,NA,large,images/stimulus_large.jpg,small,NA,Mon Aug 03 2020 14:11:11 GMT-0700 (Nordamerikanische Westküsten-Sommerzeit),1596489071438,Yes,21.069016666666666,35,experimental_trials_compatible
2090,right-handed,compatible,NA,503,left,23,ich habe einmal p gedrückt gehalten beim 3. versuch :(,1,1596490335579,small,169,other,q,p,q,deutsch,NA,NA,large,images/stimulus_small.jpg,small,NA,Mon Aug 03 2020 14:11:11 GMT-0700 (Nordamerikanische Westküsten-Sommerzeit),1596489071438,Yes,21.069016666666666,36,experimental_trials_compatible
2090,right-handed,compatible,NA,473,right,23,ich habe einmal p gedrückt gehalten beim 3. versuch :(,1,1596490335579,large,169,other,q,p,p,deutsch,NA,NA,large,images/stimulus_large.jpg,small,NA,Mon Aug 03 2020 14:11:11 GMT-0700 (Nordamerikanische Westküsten-Sommerzeit),1596489071438,Yes,21.069016666666666,37,experimental_trials_compatible
2090,right-handed,compatible,NA,667,left,23,ich habe einmal p gedrückt gehalten beim 3. versuch :(,1,1596490335579,small,169,other,q,p,q,deutsch,NA,NA,large,images/stimulus_small.jpg,small,NA,Mon Aug 03 2020 14:11:11 GMT-0700 (Nordamerikanische Westküsten-Sommerzeit),1596489071438,Yes,21.069016666666666,38,experimental_trials_compatible
2090,right-handed,compatible,NA,458,left,23,ich habe einmal p gedrückt gehalten beim 3. versuch :(,1,1596490335579,small,169,other,q,p,q,deutsch,NA,NA,large,images/stimulus_small.jpg,small,NA,Mon Aug 03 2020 14:11:11 GMT-0700 (Nordamerikanische Westküsten-Sommerzeit),1596489071438,Yes,21.069016666666666,39,experimental_trials_compatible
2090,right-handed,compatible,NA,573,right,23,ich habe einmal p gedrückt gehalten beim 3. versuch :(,1,1596490335579,large,169,other,q,p,p,deutsch,NA,NA,large,images/stimulus_large.jpg,small,NA,Mon Aug 03 2020 14:11:11 GMT-0700 (Nordamerikanische Westküsten-Sommerzeit),1596489071438,Yes,21.069016666666666,40,experimental_trials_compatible
2090,right-handed,compatible,NA,322,right,23,ich habe einmal p gedrückt gehalten beim 3. versuch :(,1,1596490335579,large,169,other,q,p,p,deutsch,NA,NA,large,images/stimulus_large.jpg,small,NA,Mon Aug 03 2020 14:11:11 GMT-0700 (Nordamerikanische Westküsten-Sommerzeit),1596489071438,Yes,21.069016666666666,41,experimental_trials_compatible
2090,right-handed,compatible,NA,438,left,23,ich habe einmal p gedrückt gehalten beim 3. versuch :(,1,1596490335579,small,169,other,q,p,q,deutsch,NA,NA,large,images/stimulus_small.jpg,small,NA,Mon Aug 03 2020 14:11:11 GMT-0700 (Nordamerikanische Westküsten-Sommerzeit),1596489071438,Yes,21.069016666666666,42,experimental_trials_compatible
2090,right-handed,compatible,NA,502,left,23,ich habe einmal p gedrückt gehalten beim 3. versuch :(,1,1596490335579,small,169,other,q,p,q,deutsch,NA,NA,large,images/stimulus_small.jpg,small,NA,Mon Aug 03 2020 14:11:11 GMT-0700 (Nordamerikanische Westküsten-Sommerzeit),1596489071438,Yes,21.069016666666666,43,experimental_trials_compatible
2090,right-handed,compatible,NA,452,left,23,ich habe einmal p gedrückt gehalten beim 3. versuch :(,1,1596490335579,small,169,other,q,p,q,deutsch,NA,NA,large,images/stimulus_small.jpg,small,NA,Mon Aug 03 2020 14:11:11 GMT-0700 (Nordamerikanische Westküsten-Sommerzeit),1596489071438,Yes,21.069016666666666,44,experimental_trials_compatible
2090,right-handed,compatible,NA,408,left,23,ich habe einmal p gedrückt gehalten beim 3. versuch :(,1,1596490335579,small,169,other,q,p,q,deutsch,NA,NA,large,images/stimulus_small.jpg,small,NA,Mon Aug 03 2020 14:11:11 GMT-0700 (Nordamerikanische Westküsten-Sommerzeit),1596489071438,Yes,21.069016666666666,45,experimental_trials_compatible
2090,right-handed,compatible,NA,473,right,23,ich habe einmal p gedrückt gehalten beim 3. versuch :(,1,1596490335579,large,169,other,q,p,p,deutsch,NA,NA,large,images/stimulus_large.jpg,small,NA,Mon Aug 03 2020 14:11:11 GMT-0700 (Nordamerikanische Westküsten-Sommerzeit),1596489071438,Yes,21.069016666666666,46,experimental_trials_compatible
2090,right-handed,compatible,NA,588,right,23,ich habe einmal p gedrückt gehalten beim 3. versuch :(,1,1596490335579,large,169,other,q,p,p,deutsch,NA,NA,large,images/stimulus_large.jpg,small,NA,Mon Aug 03 2020 14:11:11 GMT-0700 (Nordamerikanische Westküsten-Sommerzeit),1596489071438,Yes,21.069016666666666,47,experimental_trials_compatible
2090,right-handed,compatible,NA,588,right,23,ich habe einmal p gedrückt gehalten beim 3. versuch :(,1,1596490335579,large,169,other,q,p,p,deutsch,NA,NA,large,images/stimulus_large.jpg,small,NA,Mon Aug 03 2020 14:11:11 GMT-0700 (Nordamerikanische Westküsten-Sommerzeit),1596489071438,Yes,21.069016666666666,48,experimental_trials_compatible
2090,right-handed,compatible,NA,454,right,23,ich habe einmal p gedrückt gehalten beim 3. versuch :(,1,1596490335579,large,169,other,q,p,p,deutsch,NA,NA,large,images/stimulus_large.jpg,small,NA,Mon Aug 03 2020 14:11:11 GMT-0700 (Nordamerikanische Westküsten-Sommerzeit),1596489071438,Yes,21.069016666666666,49,experimental_trials_compatible
2090,right-handed,compatible,NA,387,left,23,ich habe einmal p gedrückt gehalten beim 3. versuch :(,1,1596490335579,small,169,other,q,p,q,deutsch,NA,NA,large,images/stimulus_small.jpg,small,NA,Mon Aug 03 2020 14:11:11 GMT-0700 (Nordamerikanische Westküsten-Sommerzeit),1596489071438,Yes,21.069016666666666,50,experimental_trials_compatible
2090,right-handed,compatible,NA,735,left,23,ich habe einmal p gedrückt gehalten beim 3. versuch :(,1,1596490335579,small,169,other,q,p,q,deutsch,NA,NA,large,images/stimulus_small.jpg,small,NA,Mon Aug 03 2020 14:11:11 GMT-0700 (Nordamerikanische Westküsten-Sommerzeit),1596489071438,Yes,21.069016666666666,51,experimental_trials_compatible
2090,right-handed,compatible,NA,567,left,23,ich habe einmal p gedrückt gehalten beim 3. versuch :(,1,1596490335579,small,169,other,q,p,q,deutsch,NA,NA,large,images/stimulus_small.jpg,small,NA,Mon Aug 03 2020 14:11:11 GMT-0700 (Nordamerikanische Westküsten-Sommerzeit),1596489071438,Yes,21.069016666666666,52,experimental_trials_compatible
2090,right-handed,compatible,NA,488,left,23,ich habe einmal p gedrückt gehalten beim 3. versuch :(,1,1596490335579,small,169,other,q,p,q,deutsch,NA,NA,large,images/stimulus_small.jpg,small,NA,Mon Aug 03 2020 14:11:11 GMT-0700 (Nordamerikanische Westküsten-Sommerzeit),1596489071438,Yes,21.069016666666666,53,experimental_trials_compatible
2090,right-handed,compatible,NA,504,left,23,ich habe einmal p gedrückt gehalten beim 3. versuch :(,1,1596490335579,small,169,other,q,p,q,deutsch,NA,NA,large,images/stimulus_small.jpg,small,NA,Mon Aug 03 2020 14:11:11 GMT-0700 (Nordamerikanische Westküsten-Sommerzeit),1596489071438,Yes,21.069016666666666,54,experimental_trials_compatible
2090,right-handed,compatible,NA,504,right,23,ich habe einmal p gedrückt gehalten beim 3. versuch :(,1,1596490335579,large,169,other,q,p,p,deutsch,NA,NA,large,images/stimulus_large.jpg,small,NA,Mon Aug 03 2020 14:11:11 GMT-0700 (Nordamerikanische Westküsten-Sommerzeit),1596489071438,Yes,21.069016666666666,55,experimental_trials_compatible
2090,right-handed,compatible,NA,634,right,23,ich habe einmal p gedrückt gehalten beim 3. versuch :(,1,1596490335579,large,169,other,q,p,p,deutsch,NA,NA,large,images/stimulus_large.jpg,small,NA,Mon Aug 03 2020 14:11:11 GMT-0700 (Nordamerikanische Westküsten-Sommerzeit),1596489071438,Yes,21.069016666666666,56,experimental_trials_compatible
2090,right-handed,compatible,NA,392,right,23,ich habe einmal p gedrückt gehalten beim 3. versuch :(,1,1596490335579,large,169,other,q,p,p,deutsch,NA,NA,large,images/stimulus_large.jpg,small,NA,Mon Aug 03 2020 14:11:11 GMT-0700 (Nordamerikanische Westküsten-Sommerzeit),1596489071438,Yes,21.069016666666666,57,experimental_trials_compatible
2090,right-handed,compatible,NA,433,right,23,ich habe einmal p gedrückt gehalten beim 3. versuch :(,1,1596490335579,large,169,other,q,p,p,deutsch,NA,NA,large,images/stimulus_large.jpg,small,NA,Mon Aug 03 2020 14:11:11 GMT-0700 (Nordamerikanische Westküsten-Sommerzeit),1596489071438,Yes,21.069016666666666,58,experimental_trials_compatible
2090,right-handed,compatible,NA,545,left,23,ich habe einmal p gedrückt gehalten beim 3. versuch :(,1,1596490335579,small,169,other,q,p,q,deutsch,NA,NA,large,images/stimulus_small.jpg,small,NA,Mon Aug 03 2020 14:11:11 GMT-0700 (Nordamerikanische Westküsten-Sommerzeit),1596489071438,Yes,21.069016666666666,59,experimental_trials_compatible
2090,right-handed,compatible,NA,370,right,23,ich habe einmal p gedrückt gehalten beim 3. versuch :(,1,1596490335579,large,169,other,q,p,p,deutsch,NA,NA,large,images/stimulus_large.jpg,small,NA,Mon Aug 03 2020 14:11:11 GMT-0700 (Nordamerikanische Westküsten-Sommerzeit),1596489071438,Yes,21.069016666666666,60,experimental_trials_compatible
2089,right-handed,incompatible,NA,1212,right,18,,1,1596489488667,small,169,female,q,p,p,german,NA,NA,small,images/stimulus_small.jpg,large,NA,Mon Aug 03 2020 23:05:03 GMT+0200 (Mitteleuropäische Sommerzeit),1596488703807,No,13.081,1,training_trials_incompatible
2089,right-handed,incompatible,NA,536,left,18,,1,1596489488667,large,169,female,q,p,q,german,NA,NA,small,images/stimulus_large.jpg,large,NA,Mon Aug 03 2020 23:05:03 GMT+0200 (Mitteleuropäische Sommerzeit),1596488703807,No,13.081,2,training_trials_incompatible
2089,right-handed,incompatible,NA,493,left,18,,1,1596489488667,large,169,female,q,p,q,german,NA,NA,small,images/stimulus_large.jpg,large,NA,Mon Aug 03 2020 23:05:03 GMT+0200 (Mitteleuropäische Sommerzeit),1596488703807,No,13.081,3,training_trials_incompatible
2089,right-handed,incompatible,NA,503,right,18,,1,1596489488667,small,169,female,q,p,p,german,NA,NA,small,images/stimulus_small.jpg,large,NA,Mon Aug 03 2020 23:05:03 GMT+0200 (Mitteleuropäische Sommerzeit),1596488703807,No,13.081,4,training_trials_incompatible
2089,right-handed,incompatible,NA,541,right,18,,1,1596489488667,small,169,female,q,p,p,german,NA,NA,small,images/stimulus_small.jpg,large,NA,Mon Aug 03 2020 23:05:03 GMT+0200 (Mitteleuropäische Sommerzeit),1596488703807,No,13.081,5,training_trials_incompatible
2089,right-handed,incompatible,NA,580,left,18,,1,1596489488667,large,169,female,q,p,q,german,NA,NA,small,images/stimulus_large.jpg,large,NA,Mon Aug 03 2020 23:05:03 GMT+0200 (Mitteleuropäische Sommerzeit),1596488703807,No,13.081,6,training_trials_incompatible
2089,right-handed,incompatible,NA,607,left,18,,1,1596489488667,large,169,female,q,p,q,german,NA,NA,small,images/stimulus_large.jpg,large,NA,Mon Aug 03 2020 23:05:03 GMT+0200 (Mitteleuropäische Sommerzeit),1596488703807,No,13.081,7,training_trials_incompatible
2089,right-handed,incompatible,NA,708,right,18,,1,1596489488667,small,169,female,q,p,p,german,NA,NA,small,images/stimulus_small.jpg,large,NA,Mon Aug 03 2020 23:05:03 GMT+0200 (Mitteleuropäische Sommerzeit),1596488703807,No,13.081,8,training_trials_incompatible
2089,right-handed,incompatible,NA,1142,left,18,,1,1596489488667,large,169,female,q,p,q,german,NA,NA,small,images/stimulus_large.jpg,large,NA,Mon Aug 03 2020 23:05:03 GMT+0200 (Mitteleuropäische Sommerzeit),1596488703807,No,13.081,9,training_trials_incompatible
2089,right-handed,incompatible,NA,959,left,18,,1,1596489488667,large,169,female,q,p,q,german,NA,NA,small,images/stimulus_large.jpg,large,NA,Mon Aug 03 2020 23:05:03 GMT+0200 (Mitteleuropäische Sommerzeit),1596488703807,No,13.081,10,training_trials_incompatible
2089,right-handed,incompatible,NA,450,left,18,,1,1596489488667,large,169,female,q,p,q,german,NA,NA,small,images/stimulus_large.jpg,large,NA,Mon Aug 03 2020 23:05:03 GMT+0200 (Mitteleuropäische Sommerzeit),1596488703807,No,13.081,1,experimental_trials_incompatible
2089,right-handed,incompatible,NA,374,left,18,,1,1596489488667,large,169,female,q,p,q,german,NA,NA,small,images/stimulus_large.jpg,large,NA,Mon Aug 03 2020 23:05:03 GMT+0200 (Mitteleuropäische Sommerzeit),1596488703807,No,13.081,2,experimental_trials_incompatible
2089,right-handed,incompatible,NA,404,left,18,,1,1596489488667,large,169,female,q,p,q,german,NA,NA,small,images/stimulus_large.jpg,large,NA,Mon Aug 03 2020 23:05:03 GMT+0200 (Mitteleuropäische Sommerzeit),1596488703807,No,13.081,3,experimental_trials_incompatible
2089,right-handed,incompatible,NA,430,right,18,,1,1596489488667,small,169,female,q,p,p,german,NA,NA,small,images/stimulus_small.jpg,large,NA,Mon Aug 03 2020 23:05:03 GMT+0200 (Mitteleuropäische Sommerzeit),1596488703807,No,13.081,4,experimental_trials_incompatible
2089,right-handed,incompatible,NA,403,left,18,,1,1596489488667,large,169,female,q,p,q,german,NA,NA,small,images/stimulus_large.jpg,large,NA,Mon Aug 03 2020 23:05:03 GMT+0200 (Mitteleuropäische Sommerzeit),1596488703807,No,13.081,5,experimental_trials_incompatible
2089,right-handed,incompatible,NA,428,left,18,,1,1596489488667,large,169,female,q,p,q,german,NA,NA,small,images/stimulus_large.jpg,large,NA,Mon Aug 03 2020 23:05:03 GMT+0200 (Mitteleuropäische Sommerzeit),1596488703807,No,13.081,6,experimental_trials_incompatible
2089,right-handed,incompatible,NA,423,left,18,,1,1596489488667,large,169,female,q,p,q,german,NA,NA,small,images/stimulus_large.jpg,large,NA,Mon Aug 03 2020 23:05:03 GMT+0200 (Mitteleuropäische Sommerzeit),1596488703807,No,13.081,7,experimental_trials_incompatible
2089,right-handed,incompatible,NA,435,right,18,,1,1596489488667,small,169,female,q,p,p,german,NA,NA,small,images/stimulus_small.jpg,large,NA,Mon Aug 03 2020 23:05:03 GMT+0200 (Mitteleuropäische Sommerzeit),1596488703807,No,13.081,8,experimental_trials_incompatible
2089,right-handed,incompatible,NA,465,left,18,,1,1596489488667,large,169,female,q,p,q,german,NA,NA,small,images/stimulus_large.jpg,large,NA,Mon Aug 03 2020 23:05:03 GMT+0200 (Mitteleuropäische Sommerzeit),1596488703807,No,13.081,9,experimental_trials_incompatible
2089,right-handed,incompatible,NA,568,right,18,,1,1596489488667,small,169,female,q,p,p,german,NA,NA,small,images/stimulus_small.jpg,large,NA,Mon Aug 03 2020 23:05:03 GMT+0200 (Mitteleuropäische Sommerzeit),1596488703807,No,13.081,10,experimental_trials_incompatible
2089,right-handed,incompatible,NA,422,left,18,,1,1596489488667,large,169,female,q,p,q,german,NA,NA,small,images/stimulus_large.jpg,large,NA,Mon Aug 03 2020 23:05:03 GMT+0200 (Mitteleuropäische Sommerzeit),1596488703807,No,13.081,11,experimental_trials_incompatible
2089,right-handed,incompatible,NA,405,left,18,,1,1596489488667,large,169,female,q,p,q,german,NA,NA,small,images/stimulus_large.jpg,large,NA,Mon Aug 03 2020 23:05:03 GMT+0200 (Mitteleuropäische Sommerzeit),1596488703807,No,13.081,12,experimental_trials_incompatible
2089,right-handed,incompatible,NA,432,right,18,,1,1596489488667,small,169,female,q,p,p,german,NA,NA,small,images/stimulus_small.jpg,large,NA,Mon Aug 03 2020 23:05:03 GMT+0200 (Mitteleuropäische Sommerzeit),1596488703807,No,13.081,13,experimental_trials_incompatible
2089,right-handed,incompatible,NA,402,right,18,,1,1596489488667,small,169,female,q,p,p,german,NA,NA,small,images/stimulus_small.jpg,large,NA,Mon Aug 03 2020 23:05:03 GMT+0200 (Mitteleuropäische Sommerzeit),1596488703807,No,13.081,14,experimental_trials_incompatible
2089,right-handed,incompatible,NA,432,left,18,,1,1596489488667,large,169,female,q,p,q,german,NA,NA,small,images/stimulus_large.jpg,large,NA,Mon Aug 03 2020 23:05:03 GMT+0200 (Mitteleuropäische Sommerzeit),1596488703807,No,13.081,15,experimental_trials_incompatible
2089,right-handed,incompatible,NA,472,left,18,,1,1596489488667,large,169,female,q,p,q,german,NA,NA,small,images/stimulus_large.jpg,large,NA,Mon Aug 03 2020 23:05:03 GMT+0200 (Mitteleuropäische Sommerzeit),1596488703807,No,13.081,16,experimental_trials_incompatible
2089,right-handed,incompatible,NA,412,right,18,,1,1596489488667,small,169,female,q,p,p,german,NA,NA,small,images/stimulus_small.jpg,large,NA,Mon Aug 03 2020 23:05:03 GMT+0200 (Mitteleuropäische Sommerzeit),1596488703807,No,13.081,17,experimental_trials_incompatible
2089,right-handed,incompatible,NA,399,left,18,,1,1596489488667,large,169,female,q,p,q,german,NA,NA,small,images/stimulus_large.jpg,large,NA,Mon Aug 03 2020 23:05:03 GMT+0200 (Mitteleuropäische Sommerzeit),1596488703807,No,13.081,18,experimental_trials_incompatible
2089,right-handed,incompatible,NA,547,right,18,,1,1596489488667,small,169,female,q,p,p,german,NA,NA,small,images/stimulus_small.jpg,large,NA,Mon Aug 03 2020 23:05:03 GMT+0200 (Mitteleuropäische Sommerzeit),1596488703807,No,13.081,19,experimental_trials_incompatible
2089,right-handed,incompatible,NA,420,left,18,,1,1596489488667,large,169,female,q,p,q,german,NA,NA,small,images/stimulus_large.jpg,large,NA,Mon Aug 03 2020 23:05:03 GMT+0200 (Mitteleuropäische Sommerzeit),1596488703807,No,13.081,20,experimental_trials_incompatible
2089,right-handed,incompatible,NA,577,right,18,,1,1596489488667,small,169,female,q,p,p,german,NA,NA,small,images/stimulus_small.jpg,large,NA,Mon Aug 03 2020 23:05:03 GMT+0200 (Mitteleuropäische Sommerzeit),1596488703807,No,13.081,21,experimental_trials_incompatible
2089,right-handed,incompatible,NA,501,right,18,,1,1596489488667,small,169,female,q,p,p,german,NA,NA,small,images/stimulus_small.jpg,large,NA,Mon Aug 03 2020 23:05:03 GMT+0200 (Mitteleuropäische Sommerzeit),1596488703807,No,13.081,22,experimental_trials_incompatible
2089,right-handed,incompatible,NA,478,left,18,,1,1596489488667,large,169,female,q,p,q,german,NA,NA,small,images/stimulus_large.jpg,large,NA,Mon Aug 03 2020 23:05:03 GMT+0200 (Mitteleuropäische Sommerzeit),1596488703807,No,13.081,23,experimental_trials_incompatible
2089,right-handed,incompatible,NA,549,right,18,,1,1596489488667,small,169,female,q,p,p,german,NA,NA,small,images/stimulus_small.jpg,large,NA,Mon Aug 03 2020 23:05:03 GMT+0200 (Mitteleuropäische Sommerzeit),1596488703807,No,13.081,24,experimental_trials_incompatible
2089,right-handed,incompatible,NA,462,right,18,,1,1596489488667,small,169,female,q,p,p,german,NA,NA,small,images/stimulus_small.jpg,large,NA,Mon Aug 03 2020 23:05:03 GMT+0200 (Mitteleuropäische Sommerzeit),1596488703807,No,13.081,25,experimental_trials_incompatible
2089,right-handed,incompatible,NA,420,left,18,,1,1596489488667,large,169,female,q,p,q,german,NA,NA,small,images/stimulus_large.jpg,large,NA,Mon Aug 03 2020 23:05:03 GMT+0200 (Mitteleuropäische Sommerzeit),1596488703807,No,13.081,26,experimental_trials_incompatible
2089,right-handed,incompatible,NA,482,left,18,,1,1596489488667,large,169,female,q,p,q,german,NA,NA,small,images/stimulus_large.jpg,large,NA,Mon Aug 03 2020 23:05:03 GMT+0200 (Mitteleuropäische Sommerzeit),1596488703807,No,13.081,27,experimental_trials_incompatible
2089,right-handed,incompatible,NA,461,right,18,,1,1596489488667,small,169,female,q,p,p,german,NA,NA,small,images/stimulus_small.jpg,large,NA,Mon Aug 03 2020 23:05:03 GMT+0200 (Mitteleuropäische Sommerzeit),1596488703807,No,13.081,28,experimental_trials_incompatible
2089,right-handed,incompatible,NA,536,left,18,,1,1596489488667,large,169,female,q,p,q,german,NA,NA,small,images/stimulus_large.jpg,large,NA,Mon Aug 03 2020 23:05:03 GMT+0200 (Mitteleuropäische Sommerzeit),1596488703807,No,13.081,29,experimental_trials_incompatible
2089,right-handed,incompatible,NA,461,left,18,,1,1596489488667,large,169,female,q,p,q,german,NA,NA,small,images/stimulus_large.jpg,large,NA,Mon Aug 03 2020 23:05:03 GMT+0200 (Mitteleuropäische Sommerzeit),1596488703807,No,13.081,30,experimental_trials_incompatible
2089,right-handed,incompatible,NA,458,right,18,,1,1596489488667,small,169,female,q,p,p,german,NA,NA,small,images/stimulus_small.jpg,large,NA,Mon Aug 03 2020 23:05:03 GMT+0200 (Mitteleuropäische Sommerzeit),1596488703807,No,13.081,31,experimental_trials_incompatible
2089,right-handed,incompatible,NA,443,right,18,,1,1596489488667,small,169,female,q,p,p,german,NA,NA,small,images/stimulus_small.jpg,large,NA,Mon Aug 03 2020 23:05:03 GMT+0200 (Mitteleuropäische Sommerzeit),1596488703807,No,13.081,32,experimental_trials_incompatible
2089,right-handed,incompatible,NA,421,left,18,,1,1596489488667,large,169,female,q,p,q,german,NA,NA,small,images/stimulus_large.jpg,large,NA,Mon Aug 03 2020 23:05:03 GMT+0200 (Mitteleuropäische Sommerzeit),1596488703807,No,13.081,33,experimental_trials_incompatible
2089,right-handed,incompatible,NA,423,right,18,,1,1596489488667,small,169,female,q,p,p,german,NA,NA,small,images/stimulus_small.jpg,large,NA,Mon Aug 03 2020 23:05:03 GMT+0200 (Mitteleuropäische Sommerzeit),1596488703807,No,13.081,34,experimental_trials_incompatible
2089,right-handed,incompatible,NA,495,right,18,,1,1596489488667,small,169,female,q,p,p,german,NA,NA,small,images/stimulus_small.jpg,large,NA,Mon Aug 03 2020 23:05:03 GMT+0200 (Mitteleuropäische Sommerzeit),1596488703807,No,13.081,35,experimental_trials_incompatible
2089,right-handed,incompatible,NA,476,left,18,,1,1596489488667,large,169,female,q,p,q,german,NA,NA,small,images/stimulus_large.jpg,large,NA,Mon Aug 03 2020 23:05:03 GMT+0200 (Mitteleuropäische Sommerzeit),1596488703807,No,13.081,36,experimental_trials_incompatible
2089,right-handed,incompatible,NA,423,right,18,,1,1596489488667,small,169,female,q,p,p,german,NA,NA,small,images/stimulus_small.jpg,large,NA,Mon Aug 03 2020 23:05:03 GMT+0200 (Mitteleuropäische Sommerzeit),1596488703807,No,13.081,37,experimental_trials_incompatible
2089,right-handed,incompatible,NA,381,left,18,,1,1596489488667,large,169,female,q,p,q,german,NA,NA,small,images/stimulus_large.jpg,large,NA,Mon Aug 03 2020 23:05:03 GMT+0200 (Mitteleuropäische Sommerzeit),1596488703807,No,13.081,38,experimental_trials_incompatible
2089,right-handed,incompatible,NA,533,left,18,,1,1596489488667,large,169,female,q,p,q,german,NA,NA,small,images/stimulus_large.jpg,large,NA,Mon Aug 03 2020 23:05:03 GMT+0200 (Mitteleuropäische Sommerzeit),1596488703807,No,13.081,39,experimental_trials_incompatible
2089,right-handed,incompatible,NA,514,left,18,,1,1596489488667,large,169,female,q,p,q,german,NA,NA,small,images/stimulus_large.jpg,large,NA,Mon Aug 03 2020 23:05:03 GMT+0200 (Mitteleuropäische Sommerzeit),1596488703807,No,13.081,40,experimental_trials_incompatible
2089,right-handed,incompatible,NA,513,left,18,,1,1596489488667,large,169,female,q,p,q,german,NA,NA,small,images/stimulus_large.jpg,large,NA,Mon Aug 03 2020 23:05:03 GMT+0200 (Mitteleuropäische Sommerzeit),1596488703807,No,13.081,41,experimental_trials_incompatible
2089,right-handed,incompatible,NA,441,left,18,,0,1596489488667,small,169,female,q,p,q,german,NA,NA,small,images/stimulus_small.jpg,large,NA,Mon Aug 03 2020 23:05:03 GMT+0200 (Mitteleuropäische Sommerzeit),1596488703807,No,13.081,42,experimental_trials_incompatible
2089,right-handed,incompatible,NA,533,right,18,,1,1596489488667,small,169,female,q,p,p,german,NA,NA,small,images/stimulus_small.jpg,large,NA,Mon Aug 03 2020 23:05:03 GMT+0200 (Mitteleuropäische Sommerzeit),1596488703807,No,13.081,43,experimental_trials_incompatible
2089,right-handed,incompatible,NA,437,right,18,,1,1596489488667,small,169,female,q,p,p,german,NA,NA,small,images/stimulus_small.jpg,large,NA,Mon Aug 03 2020 23:05:03 GMT+0200 (Mitteleuropäische Sommerzeit),1596488703807,No,13.081,44,experimental_trials_incompatible
2089,right-handed,incompatible,NA,436,right,18,,1,1596489488667,small,169,female,q,p,p,german,NA,NA,small,images/stimulus_small.jpg,large,NA,Mon Aug 03 2020 23:05:03 GMT+0200 (Mitteleuropäische Sommerzeit),1596488703807,No,13.081,45,experimental_trials_incompatible
2089,right-handed,incompatible,NA,410,right,18,,1,1596489488667,small,169,female,q,p,p,german,NA,NA,small,images/stimulus_small.jpg,large,NA,Mon Aug 03 2020 23:05:03 GMT+0200 (Mitteleuropäische Sommerzeit),1596488703807,No,13.081,46,experimental_trials_incompatible
2089,right-handed,incompatible,NA,483,right,18,,1,1596489488667,small,169,female,q,p,p,german,NA,NA,small,images/stimulus_small.jpg,large,NA,Mon Aug 03 2020 23:05:03 GMT+0200 (Mitteleuropäische Sommerzeit),1596488703807,No,13.081,47,experimental_trials_incompatible
2089,right-handed,incompatible,NA,498,left,18,,1,1596489488667,large,169,female,q,p,q,german,NA,NA,small,images/stimulus_large.jpg,large,NA,Mon Aug 03 2020 23:05:03 GMT+0200 (Mitteleuropäische Sommerzeit),1596488703807,No,13.081,48,experimental_trials_incompatible
2089,right-handed,incompatible,NA,483,right,18,,1,1596489488667,small,169,female,q,p,p,german,NA,NA,small,images/stimulus_small.jpg,large,NA,Mon Aug 03 2020 23:05:03 GMT+0200 (Mitteleuropäische Sommerzeit),1596488703807,No,13.081,49,experimental_trials_incompatible
2089,right-handed,incompatible,NA,456,right,18,,1,1596489488667,small,169,female,q,p,p,german,NA,NA,small,images/stimulus_small.jpg,large,NA,Mon Aug 03 2020 23:05:03 GMT+0200 (Mitteleuropäische Sommerzeit),1596488703807,No,13.081,50,experimental_trials_incompatible
2089,right-handed,incompatible,NA,537,left,18,,1,1596489488667,large,169,female,q,p,q,german,NA,NA,small,images/stimulus_large.jpg,large,NA,Mon Aug 03 2020 23:05:03 GMT+0200 (Mitteleuropäische Sommerzeit),1596488703807,No,13.081,51,experimental_trials_incompatible
2089,right-handed,incompatible,NA,462,left,18,,1,1596489488667,large,169,female,q,p,q,german,NA,NA,small,images/stimulus_large.jpg,large,NA,Mon Aug 03 2020 23:05:03 GMT+0200 (Mitteleuropäische Sommerzeit),1596488703807,No,13.081,52,experimental_trials_incompatible
2089,right-handed,incompatible,NA,501,right,18,,1,1596489488667,small,169,female,q,p,p,german,NA,NA,small,images/stimulus_small.jpg,large,NA,Mon Aug 03 2020 23:05:03 GMT+0200 (Mitteleuropäische Sommerzeit),1596488703807,No,13.081,53,experimental_trials_incompatible
2089,right-handed,incompatible,NA,405,right,18,,1,1596489488667,small,169,female,q,p,p,german,NA,NA,small,images/stimulus_small.jpg,large,NA,Mon Aug 03 2020 23:05:03 GMT+0200 (Mitteleuropäische Sommerzeit),1596488703807,No,13.081,54,experimental_trials_incompatible
2089,right-handed,incompatible,NA,404,right,18,,1,1596489488667,small,169,female,q,p,p,german,NA,NA,small,images/stimulus_small.jpg,large,NA,Mon Aug 03 2020 23:05:03 GMT+0200 (Mitteleuropäische Sommerzeit),1596488703807,No,13.081,55,experimental_trials_incompatible
2089,right-handed,incompatible,NA,480,left,18,,1,1596489488667,large,169,female,q,p,q,german,NA,NA,small,images/stimulus_large.jpg,large,NA,Mon Aug 03 2020 23:05:03 GMT+0200 (Mitteleuropäische Sommerzeit),1596488703807,No,13.081,56,experimental_trials_incompatible
2089,right-handed,incompatible,NA,444,right,18,,1,1596489488667,small,169,female,q,p,p,german,NA,NA,small,images/stimulus_small.jpg,large,NA,Mon Aug 03 2020 23:05:03 GMT+0200 (Mitteleuropäische Sommerzeit),1596488703807,No,13.081,57,experimental_trials_incompatible
2089,right-handed,incompatible,NA,423,left,18,,1,1596489488667,large,169,female,q,p,q,german,NA,NA,small,images/stimulus_large.jpg,large,NA,Mon Aug 03 2020 23:05:03 GMT+0200 (Mitteleuropäische Sommerzeit),1596488703807,No,13.081,58,experimental_trials_incompatible
2089,right-handed,incompatible,NA,443,right,18,,1,1596489488667,small,169,female,q,p,p,german,NA,NA,small,images/stimulus_small.jpg,large,NA,Mon Aug 03 2020 23:05:03 GMT+0200 (Mitteleuropäische Sommerzeit),1596488703807,No,13.081,59,experimental_trials_incompatible
2089,right-handed,incompatible,NA,423,left,18,,1,1596489488667,large,169,female,q,p,q,german,NA,NA,small,images/stimulus_large.jpg,large,NA,Mon Aug 03 2020 23:05:03 GMT+0200 (Mitteleuropäische Sommerzeit),1596488703807,No,13.081,60,experimental_trials_incompatible
2089,right-handed,NA,,1099,circle,18,,1,1596489488667,circle,169,female,NA,NA,NA,german,circle,triangle,NA,images/circle.jpg,NA,,Mon Aug 03 2020 23:05:03 GMT+0200 (Mitteleuropäische Sommerzeit),1596488703807,No,13.081,1,distractor_trials
2089,right-handed,NA,,852,triangle,18,,1,1596489488667,triangle,169,female,NA,NA,NA,german,circle,triangle,NA,images/triangle.jpg,NA,,Mon Aug 03 2020 23:05:03 GMT+0200 (Mitteleuropäische Sommerzeit),1596488703807,No,13.081,2,distractor_trials
2089,right-handed,NA,,1019,triangle,18,,1,1596489488667,triangle,169,female,NA,NA,NA,german,circle,triangle,NA,images/triangle.jpg,NA,,Mon Aug 03 2020 23:05:03 GMT+0200 (Mitteleuropäische Sommerzeit),1596488703807,No,13.081,3,distractor_trials
2089,right-handed,NA,,776,triangle,18,,1,1596489488667,triangle,169,female,NA,NA,NA,german,circle,triangle,NA,images/triangle.jpg,NA,,Mon Aug 03 2020 23:05:03 GMT+0200 (Mitteleuropäische Sommerzeit),1596488703807,No,13.081,4,distractor_trials
2089,right-handed,NA,,846,triangle,18,,1,1596489488667,triangle,169,female,NA,NA,NA,german,circle,triangle,NA,images/triangle.jpg,NA,,Mon Aug 03 2020 23:05:03 GMT+0200 (Mitteleuropäische Sommerzeit),1596488703807,No,13.081,5,distractor_trials
2089,right-handed,NA,,688,triangle,18,,1,1596489488667,triangle,169,female,NA,NA,NA,german,circle,triangle,NA,images/triangle.jpg,NA,,Mon Aug 03 2020 23:05:03 GMT+0200 (Mitteleuropäische Sommerzeit),1596488703807,No,13.081,6,distractor_trials
2089,right-handed,NA,,759,circle,18,,1,1596489488667,circle,169,female,NA,NA,NA,german,circle,triangle,NA,images/circle.jpg,NA,,Mon Aug 03 2020 23:05:03 GMT+0200 (Mitteleuropäische Sommerzeit),1596488703807,No,13.081,7,distractor_trials
2089,right-handed,NA,,997,circle,18,,1,1596489488667,circle,169,female,NA,NA,NA,german,circle,triangle,NA,images/circle.jpg,NA,,Mon Aug 03 2020 23:05:03 GMT+0200 (Mitteleuropäische Sommerzeit),1596488703807,No,13.081,8,distractor_trials
2089,right-handed,NA,,803,triangle,18,,1,1596489488667,triangle,169,female,NA,NA,NA,german,circle,triangle,NA,images/triangle.jpg,NA,,Mon Aug 03 2020 23:05:03 GMT+0200 (Mitteleuropäische Sommerzeit),1596488703807,No,13.081,9,distractor_trials
2089,right-handed,NA,,763,circle,18,,1,1596489488667,circle,169,female,NA,NA,NA,german,circle,triangle,NA,images/circle.jpg,NA,,Mon Aug 03 2020 23:05:03 GMT+0200 (Mitteleuropäische Sommerzeit),1596488703807,No,13.081,10,distractor_trials
2089,right-handed,NA,,586,triangle,18,,1,1596489488667,triangle,169,female,NA,NA,NA,german,circle,triangle,NA,images/triangle.jpg,NA,,Mon Aug 03 2020 23:05:03 GMT+0200 (Mitteleuropäische Sommerzeit),1596488703807,No,13.081,11,distractor_trials
2089,right-handed,NA,,908,triangle,18,,1,1596489488667,triangle,169,female,NA,NA,NA,german,circle,triangle,NA,images/triangle.jpg,NA,,Mon Aug 03 2020 23:05:03 GMT+0200 (Mitteleuropäische Sommerzeit),1596488703807,No,13.081,12,distractor_trials
2089,right-handed,NA,,724,triangle,18,,1,1596489488667,triangle,169,female,NA,NA,NA,german,circle,triangle,NA,images/triangle.jpg,NA,,Mon Aug 03 2020 23:05:03 GMT+0200 (Mitteleuropäische Sommerzeit),1596488703807,No,13.081,13,distractor_trials
2089,right-handed,NA,,1227,circle,18,,1,1596489488667,circle,169,female,NA,NA,NA,german,circle,triangle,NA,images/circle.jpg,NA,,Mon Aug 03 2020 23:05:03 GMT+0200 (Mitteleuropäische Sommerzeit),1596488703807,No,13.081,14,distractor_trials
2089,right-handed,NA,,611,triangle,18,,1,1596489488667,triangle,169,female,NA,NA,NA,german,circle,triangle,NA,images/triangle.jpg,NA,,Mon Aug 03 2020 23:05:03 GMT+0200 (Mitteleuropäische Sommerzeit),1596488703807,No,13.081,15,distractor_trials
2089,right-handed,NA,,930,circle,18,,1,1596489488667,circle,169,female,NA,NA,NA,german,circle,triangle,NA,images/circle.jpg,NA,,Mon Aug 03 2020 23:05:03 GMT+0200 (Mitteleuropäische Sommerzeit),1596488703807,No,13.081,16,distractor_trials
2089,right-handed,NA,,946,circle,18,,1,1596489488667,circle,169,female,NA,NA,NA,german,circle,triangle,NA,images/circle.jpg,NA,,Mon Aug 03 2020 23:05:03 GMT+0200 (Mitteleuropäische Sommerzeit),1596488703807,No,13.081,17,distractor_trials
2089,right-handed,NA,,904,circle,18,,1,1596489488667,circle,169,female,NA,NA,NA,german,circle,triangle,NA,images/circle.jpg,NA,,Mon Aug 03 2020 23:05:03 GMT+0200 (Mitteleuropäische Sommerzeit),1596488703807,No,13.081,18,distractor_trials
2089,right-handed,NA,,942,triangle,18,,1,1596489488667,triangle,169,female,NA,NA,NA,german,circle,triangle,NA,images/triangle.jpg,NA,,Mon Aug 03 2020 23:05:03 GMT+0200 (Mitteleuropäische Sommerzeit),1596488703807,No,13.081,19,distractor_trials
2089,right-handed,NA,,786,circle,18,,1,1596489488667,circle,169,female,NA,NA,NA,german,circle,triangle,NA,images/circle.jpg,NA,,Mon Aug 03 2020 23:05:03 GMT+0200 (Mitteleuropäische Sommerzeit),1596488703807,No,13.081,20,distractor_trials
2089,right-handed,compatible,NA,1256,right,18,,1,1596489488667,large,169,female,q,p,p,german,NA,NA,large,images/stimulus_large.jpg,small,NA,Mon Aug 03 2020 23:05:03 GMT+0200 (Mitteleuropäische Sommerzeit),1596488703807,No,13.081,1,training_trials_compatible
2089,right-handed,compatible,NA,506,left,18,,1,1596489488667,small,169,female,q,p,q,german,NA,NA,large,images/stimulus_small.jpg,small,NA,Mon Aug 03 2020 23:05:03 GMT+0200 (Mitteleuropäische Sommerzeit),1596488703807,No,13.081,2,training_trials_compatible
2089,right-handed,compatible,NA,430,left,18,,1,1596489488667,small,169,female,q,p,q,german,NA,NA,large,images/stimulus_small.jpg,small,NA,Mon Aug 03 2020 23:05:03 GMT+0200 (Mitteleuropäische Sommerzeit),1596488703807,No,13.081,3,training_trials_compatible
2089,right-handed,compatible,NA,478,left,18,,1,1596489488667,small,169,female,q,p,q,german,NA,NA,large,images/stimulus_small.jpg,small,NA,Mon Aug 03 2020 23:05:03 GMT+0200 (Mitteleuropäische Sommerzeit),1596488703807,No,13.081,4,training_trials_compatible
2089,right-handed,compatible,NA,414,left,18,,1,1596489488667,small,169,female,q,p,q,german,NA,NA,large,images/stimulus_small.jpg,small,NA,Mon Aug 03 2020 23:05:03 GMT+0200 (Mitteleuropäische Sommerzeit),1596488703807,No,13.081,5,training_trials_compatible
2089,right-handed,compatible,NA,416,right,18,,1,1596489488667,large,169,female,q,p,p,german,NA,NA,large,images/stimulus_large.jpg,small,NA,Mon Aug 03 2020 23:05:03 GMT+0200 (Mitteleuropäische Sommerzeit),1596488703807,No,13.081,6,training_trials_compatible
2089,right-handed,compatible,NA,448,right,18,,1,1596489488667,large,169,female,q,p,p,german,NA,NA,large,images/stimulus_large.jpg,small,NA,Mon Aug 03 2020 23:05:03 GMT+0200 (Mitteleuropäische Sommerzeit),1596488703807,No,13.081,7,training_trials_compatible
2089,right-handed,compatible,NA,364,left,18,,1,1596489488667,small,169,female,q,p,q,german,NA,NA,large,images/stimulus_small.jpg,small,NA,Mon Aug 03 2020 23:05:03 GMT+0200 (Mitteleuropäische Sommerzeit),1596488703807,No,13.081,8,training_trials_compatible
2089,right-handed,compatible,NA,353,left,18,,1,1596489488667,small,169,female,q,p,q,german,NA,NA,large,images/stimulus_small.jpg,small,NA,Mon Aug 03 2020 23:05:03 GMT+0200 (Mitteleuropäische Sommerzeit),1596488703807,No,13.081,9,training_trials_compatible
2089,right-handed,compatible,NA,487,left,18,,1,1596489488667,small,169,female,q,p,q,german,NA,NA,large,images/stimulus_small.jpg,small,NA,Mon Aug 03 2020 23:05:03 GMT+0200 (Mitteleuropäische Sommerzeit),1596488703807,No,13.081,10,training_trials_compatible
2089,right-handed,compatible,NA,732,right,18,,1,1596489488667,large,169,female,q,p,p,german,NA,NA,large,images/stimulus_large.jpg,small,NA,Mon Aug 03 2020 23:05:03 GMT+0200 (Mitteleuropäische Sommerzeit),1596488703807,No,13.081,1,experimental_trials_compatible
2089,right-handed,compatible,NA,440,right,18,,1,1596489488667,large,169,female,q,p,p,german,NA,NA,large,images/stimulus_large.jpg,small,NA,Mon Aug 03 2020 23:05:03 GMT+0200 (Mitteleuropäische Sommerzeit),1596488703807,No,13.081,2,experimental_trials_compatible
2089,right-handed,compatible,NA,418,right,18,,1,1596489488667,large,169,female,q,p,p,german,NA,NA,large,images/stimulus_large.jpg,small,NA,Mon Aug 03 2020 23:05:03 GMT+0200 (Mitteleuropäische Sommerzeit),1596488703807,No,13.081,3,experimental_trials_compatible
2089,right-handed,compatible,NA,399,left,18,,1,1596489488667,small,169,female,q,p,q,german,NA,NA,large,images/stimulus_small.jpg,small,NA,Mon Aug 03 2020 23:05:03 GMT+0200 (Mitteleuropäische Sommerzeit),1596488703807,No,13.081,4,experimental_trials_compatible
2089,right-handed,compatible,NA,358,left,18,,1,1596489488667,small,169,female,q,p,q,german,NA,NA,large,images/stimulus_small.jpg,small,NA,Mon Aug 03 2020 23:05:03 GMT+0200 (Mitteleuropäische Sommerzeit),1596488703807,No,13.081,5,experimental_trials_compatible
2089,right-handed,compatible,NA,342,left,18,,1,1596489488667,small,169,female,q,p,q,german,NA,NA,large,images/stimulus_small.jpg,small,NA,Mon Aug 03 2020 23:05:03 GMT+0200 (Mitteleuropäische Sommerzeit),1596488703807,No,13.081,6,experimental_trials_compatible
2089,right-handed,compatible,NA,434,left,18,,1,1596489488667,small,169,female,q,p,q,german,NA,NA,large,images/stimulus_small.jpg,small,NA,Mon Aug 03 2020 23:05:03 GMT+0200 (Mitteleuropäische Sommerzeit),1596488703807,No,13.081,7,experimental_trials_compatible
2089,right-handed,compatible,NA,350,right,18,,1,1596489488667,large,169,female,q,p,p,german,NA,NA,large,images/stimulus_large.jpg,small,NA,Mon Aug 03 2020 23:05:03 GMT+0200 (Mitteleuropäische Sommerzeit),1596488703807,No,13.081,8,experimental_trials_compatible
2089,right-handed,compatible,NA,432,left,18,,1,1596489488667,small,169,female,q,p,q,german,NA,NA,large,images/stimulus_small.jpg,small,NA,Mon Aug 03 2020 23:05:03 GMT+0200 (Mitteleuropäische Sommerzeit),1596488703807,No,13.081,9,experimental_trials_compatible
2089,right-handed,compatible,NA,424,right,18,,1,1596489488667,large,169,female,q,p,p,german,NA,NA,large,images/stimulus_large.jpg,small,NA,Mon Aug 03 2020 23:05:03 GMT+0200 (Mitteleuropäische Sommerzeit),1596488703807,No,13.081,10,experimental_trials_compatible
2089,right-handed,compatible,NA,438,left,18,,1,1596489488667,small,169,female,q,p,q,german,NA,NA,large,images/stimulus_small.jpg,small,NA,Mon Aug 03 2020 23:05:03 GMT+0200 (Mitteleuropäische Sommerzeit),1596488703807,No,13.081,11,experimental_trials_compatible
2089,right-handed,compatible,NA,397,left,18,,1,1596489488667,small,169,female,q,p,q,german,NA,NA,large,images/stimulus_small.jpg,small,NA,Mon Aug 03 2020 23:05:03 GMT+0200 (Mitteleuropäische Sommerzeit),1596488703807,No,13.081,12,experimental_trials_compatible
2089,right-handed,compatible,NA,446,left,18,,1,1596489488667,small,169,female,q,p,q,german,NA,NA,large,images/stimulus_small.jpg,small,NA,Mon Aug 03 2020 23:05:03 GMT+0200 (Mitteleuropäische Sommerzeit),1596488703807,No,13.081,13,experimental_trials_compatible
2089,right-handed,compatible,NA,437,right,18,,1,1596489488667,large,169,female,q,p,p,german,NA,NA,large,images/stimulus_large.jpg,small,NA,Mon Aug 03 2020 23:05:03 GMT+0200 (Mitteleuropäische Sommerzeit),1596488703807,No,13.081,14,experimental_trials_compatible
2089,right-handed,compatible,NA,500,right,18,,1,1596489488667,large,169,female,q,p,p,german,NA,NA,large,images/stimulus_large.jpg,small,NA,Mon Aug 03 2020 23:05:03 GMT+0200 (Mitteleuropäische Sommerzeit),1596488703807,No,13.081,15,experimental_trials_compatible
2089,right-handed,compatible,NA,483,right,18,,1,1596489488667,large,169,female,q,p,p,german,NA,NA,large,images/stimulus_large.jpg,small,NA,Mon Aug 03 2020 23:05:03 GMT+0200 (Mitteleuropäische Sommerzeit),1596488703807,No,13.081,16,experimental_trials_compatible
2089,right-handed,compatible,NA,476,left,18,,1,1596489488667,small,169,female,q,p,q,german,NA,NA,large,images/stimulus_small.jpg,small,NA,Mon Aug 03 2020 23:05:03 GMT+0200 (Mitteleuropäische Sommerzeit),1596488703807,No,13.081,17,experimental_trials_compatible
2089,right-handed,compatible,NA,429,right,18,,1,1596489488667,large,169,female,q,p,p,german,NA,NA,large,images/stimulus_large.jpg,small,NA,Mon Aug 03 2020 23:05:03 GMT+0200 (Mitteleuropäische Sommerzeit),1596488703807,No,13.081,18,experimental_trials_compatible
2089,right-handed,compatible,NA,497,right,18,,1,1596489488667,large,169,female,q,p,p,german,NA,NA,large,images/stimulus_large.jpg,small,NA,Mon Aug 03 2020 23:05:03 GMT+0200 (Mitteleuropäische Sommerzeit),1596488703807,No,13.081,19,experimental_trials_compatible
2089,right-handed,compatible,NA,507,left,18,,1,1596489488667,small,169,female,q,p,q,german,NA,NA,large,images/stimulus_small.jpg,small,NA,Mon Aug 03 2020 23:05:03 GMT+0200 (Mitteleuropäische Sommerzeit),1596488703807,No,13.081,20,experimental_trials_compatible
2089,right-handed,compatible,NA,458,left,18,,1,1596489488667,small,169,female,q,p,q,german,NA,NA,large,images/stimulus_small.jpg,small,NA,Mon Aug 03 2020 23:05:03 GMT+0200 (Mitteleuropäische Sommerzeit),1596488703807,No,13.081,21,experimental_trials_compatible
2089,right-handed,compatible,NA,382,left,18,,1,1596489488667,small,169,female,q,p,q,german,NA,NA,large,images/stimulus_small.jpg,small,NA,Mon Aug 03 2020 23:05:03 GMT+0200 (Mitteleuropäische Sommerzeit),1596488703807,No,13.081,22,experimental_trials_compatible
2089,right-handed,compatible,NA,409,right,18,,1,1596489488667,large,169,female,q,p,p,german,NA,NA,large,images/stimulus_large.jpg,small,NA,Mon Aug 03 2020 23:05:03 GMT+0200 (Mitteleuropäische Sommerzeit),1596488703807,No,13.081,23,experimental_trials_compatible
2089,right-handed,compatible,NA,374,left,18,,1,1596489488667,small,169,female,q,p,q,german,NA,NA,large,images/stimulus_small.jpg,small,NA,Mon Aug 03 2020 23:05:03 GMT+0200 (Mitteleuropäische Sommerzeit),1596488703807,No,13.081,24,experimental_trials_compatible
2089,right-handed,compatible,NA,495,right,18,,1,1596489488667,large,169,female,q,p,p,german,NA,NA,large,images/stimulus_large.jpg,small,NA,Mon Aug 03 2020 23:05:03 GMT+0200 (Mitteleuropäische Sommerzeit),1596488703807,No,13.081,25,experimental_trials_compatible
2089,right-handed,compatible,NA,318,left,18,,1,1596489488667,small,169,female,q,p,q,german,NA,NA,large,images/stimulus_small.jpg,small,NA,Mon Aug 03 2020 23:05:03 GMT+0200 (Mitteleuropäische Sommerzeit),1596488703807,No,13.081,26,experimental_trials_compatible
2089,right-handed,compatible,NA,486,right,18,,1,1596489488667,large,169,female,q,p,p,german,NA,NA,large,images/stimulus_large.jpg,small,NA,Mon Aug 03 2020 23:05:03 GMT+0200 (Mitteleuropäische Sommerzeit),1596488703807,No,13.081,27,experimental_trials_compatible
2089,right-handed,compatible,NA,417,right,18,,1,1596489488667,large,169,female,q,p,p,german,NA,NA,large,images/stimulus_large.jpg,small,NA,Mon Aug 03 2020 23:05:03 GMT+0200 (Mitteleuropäische Sommerzeit),1596488703807,No,13.081,28,experimental_trials_compatible
2089,right-handed,compatible,NA,444,left,18,,1,1596489488667,small,169,female,q,p,q,german,NA,NA,large,images/stimulus_small.jpg,small,NA,Mon Aug 03 2020 23:05:03 GMT+0200 (Mitteleuropäische Sommerzeit),1596488703807,No,13.081,29,experimental_trials_compatible
2089,right-handed,compatible,NA,375,left,18,,1,1596489488667,small,169,female,q,p,q,german,NA,NA,large,images/stimulus_small.jpg,small,NA,Mon Aug 03 2020 23:05:03 GMT+0200 (Mitteleuropäische Sommerzeit),1596488703807,No,13.081,30,experimental_trials_compatible
2089,right-handed,compatible,NA,409,left,18,,1,1596489488667,small,169,female,q,p,q,german,NA,NA,large,images/stimulus_small.jpg,small,NA,Mon Aug 03 2020 23:05:03 GMT+0200 (Mitteleuropäische Sommerzeit),1596488703807,No,13.081,31,experimental_trials_compatible
2089,right-handed,compatible,NA,448,right,18,,1,1596489488667,large,169,female,q,p,p,german,NA,NA,large,images/stimulus_large.jpg,small,NA,Mon Aug 03 2020 23:05:03 GMT+0200 (Mitteleuropäische Sommerzeit),1596488703807,No,13.081,32,experimental_trials_compatible
2089,right-handed,compatible,NA,497,right,18,,1,1596489488667,large,169,female,q,p,p,german,NA,NA,large,images/stimulus_large.jpg,small,NA,Mon Aug 03 2020 23:05:03 GMT+0200 (Mitteleuropäische Sommerzeit),1596488703807,No,13.081,33,experimental_trials_compatible
2089,right-handed,compatible,NA,421,left,18,,1,1596489488667,small,169,female,q,p,q,german,NA,NA,large,images/stimulus_small.jpg,small,NA,Mon Aug 03 2020 23:05:03 GMT+0200 (Mitteleuropäische Sommerzeit),1596488703807,No,13.081,34,experimental_trials_compatible
2089,right-handed,compatible,NA,390,right,18,,1,1596489488667,large,169,female,q,p,p,german,NA,NA,large,images/stimulus_large.jpg,small,NA,Mon Aug 03 2020 23:05:03 GMT+0200 (Mitteleuropäische Sommerzeit),1596488703807,No,13.081,35,experimental_trials_compatible
2089,right-handed,compatible,NA,388,left,18,,1,1596489488667,small,169,female,q,p,q,german,NA,NA,large,images/stimulus_small.jpg,small,NA,Mon Aug 03 2020 23:05:03 GMT+0200 (Mitteleuropäische Sommerzeit),1596488703807,No,13.081,36,experimental_trials_compatible
2089,right-handed,compatible,NA,450,left,18,,1,1596489488667,small,169,female,q,p,q,german,NA,NA,large,images/stimulus_small.jpg,small,NA,Mon Aug 03 2020 23:05:03 GMT+0200 (Mitteleuropäische Sommerzeit),1596488703807,No,13.081,37,experimental_trials_compatible
2089,right-handed,compatible,NA,446,right,18,,1,1596489488667,large,169,female,q,p,p,german,NA,NA,large,images/stimulus_large.jpg,small,NA,Mon Aug 03 2020 23:05:03 GMT+0200 (Mitteleuropäische Sommerzeit),1596488703807,No,13.081,38,experimental_trials_compatible
2089,right-handed,compatible,NA,410,right,18,,1,1596489488667,large,169,female,q,p,p,german,NA,NA,large,images/stimulus_large.jpg,small,NA,Mon Aug 03 2020 23:05:03 GMT+0200 (Mitteleuropäische Sommerzeit),1596488703807,No,13.081,39,experimental_trials_compatible
2089,right-handed,compatible,NA,444,right,18,,1,1596489488667,large,169,female,q,p,p,german,NA,NA,large,images/stimulus_large.jpg,small,NA,Mon Aug 03 2020 23:05:03 GMT+0200 (Mitteleuropäische Sommerzeit),1596488703807,No,13.081,40,experimental_trials_compatible
2089,right-handed,compatible,NA,422,right,18,,1,1596489488667,large,169,female,q,p,p,german,NA,NA,large,images/stimulus_large.jpg,small,NA,Mon Aug 03 2020 23:05:03 GMT+0200 (Mitteleuropäische Sommerzeit),1596488703807,No,13.081,41,experimental_trials_compatible
2089,right-handed,compatible,NA,460,right,18,,1,1596489488667,large,169,female,q,p,p,german,NA,NA,large,images/stimulus_large.jpg,small,NA,Mon Aug 03 2020 23:05:03 GMT+0200 (Mitteleuropäische Sommerzeit),1596488703807,No,13.081,42,experimental_trials_compatible
2089,right-handed,compatible,NA,401,right,18,,1,1596489488667,large,169,female,q,p,p,german,NA,NA,large,images/stimulus_large.jpg,small,NA,Mon Aug 03 2020 23:05:03 GMT+0200 (Mitteleuropäische Sommerzeit),1596488703807,No,13.081,43,experimental_trials_compatible
2089,right-handed,compatible,NA,422,right,18,,1,1596489488667,large,169,female,q,p,p,german,NA,NA,large,images/stimulus_large.jpg,small,NA,Mon Aug 03 2020 23:05:03 GMT+0200 (Mitteleuropäische Sommerzeit),1596488703807,No,13.081,44,experimental_trials_compatible
2089,right-handed,compatible,NA,376,right,18,,1,1596489488667,large,169,female,q,p,p,german,NA,NA,large,images/stimulus_large.jpg,small,NA,Mon Aug 03 2020 23:05:03 GMT+0200 (Mitteleuropäische Sommerzeit),1596488703807,No,13.081,45,experimental_trials_compatible
2089,right-handed,compatible,NA,473,left,18,,1,1596489488667,small,169,female,q,p,q,german,NA,NA,large,images/stimulus_small.jpg,small,NA,Mon Aug 03 2020 23:05:03 GMT+0200 (Mitteleuropäische Sommerzeit),1596488703807,No,13.081,46,experimental_trials_compatible
2089,right-handed,compatible,NA,338,left,18,,1,1596489488667,small,169,female,q,p,q,german,NA,NA,large,images/stimulus_small.jpg,small,NA,Mon Aug 03 2020 23:05:03 GMT+0200 (Mitteleuropäische Sommerzeit),1596488703807,No,13.081,47,experimental_trials_compatible
2089,right-handed,compatible,NA,348,left,18,,1,1596489488667,small,169,female,q,p,q,german,NA,NA,large,images/stimulus_small.jpg,small,NA,Mon Aug 03 2020 23:05:03 GMT+0200 (Mitteleuropäische Sommerzeit),1596488703807,No,13.081,48,experimental_trials_compatible
2089,right-handed,compatible,NA,420,right,18,,1,1596489488667,large,169,female,q,p,p,german,NA,NA,large,images/stimulus_large.jpg,small,NA,Mon Aug 03 2020 23:05:03 GMT+0200 (Mitteleuropäische Sommerzeit),1596488703807,No,13.081,49,experimental_trials_compatible
2089,right-handed,compatible,NA,449,left,18,,1,1596489488667,small,169,female,q,p,q,german,NA,NA,large,images/stimulus_small.jpg,small,NA,Mon Aug 03 2020 23:05:03 GMT+0200 (Mitteleuropäische Sommerzeit),1596488703807,No,13.081,50,experimental_trials_compatible
2089,right-handed,compatible,NA,396,right,18,,1,1596489488667,large,169,female,q,p,p,german,NA,NA,large,images/stimulus_large.jpg,small,NA,Mon Aug 03 2020 23:05:03 GMT+0200 (Mitteleuropäische Sommerzeit),1596488703807,No,13.081,51,experimental_trials_compatible
2089,right-handed,compatible,NA,423,right,18,,1,1596489488667,large,169,female,q,p,p,german,NA,NA,large,images/stimulus_large.jpg,small,NA,Mon Aug 03 2020 23:05:03 GMT+0200 (Mitteleuropäische Sommerzeit),1596488703807,No,13.081,52,experimental_trials_compatible
2089,right-handed,compatible,NA,400,left,18,,1,1596489488667,small,169,female,q,p,q,german,NA,NA,large,images/stimulus_small.jpg,small,NA,Mon Aug 03 2020 23:05:03 GMT+0200 (Mitteleuropäische Sommerzeit),1596488703807,No,13.081,53,experimental_trials_compatible
2089,right-handed,compatible,NA,468,right,18,,1,1596489488667,large,169,female,q,p,p,german,NA,NA,large,images/stimulus_large.jpg,small,NA,Mon Aug 03 2020 23:05:03 GMT+0200 (Mitteleuropäische Sommerzeit),1596488703807,No,13.081,54,experimental_trials_compatible
2089,right-handed,compatible,NA,451,left,18,,1,1596489488667,small,169,female,q,p,q,german,NA,NA,large,images/stimulus_small.jpg,small,NA,Mon Aug 03 2020 23:05:03 GMT+0200 (Mitteleuropäische Sommerzeit),1596488703807,No,13.081,55,experimental_trials_compatible
2089,right-handed,compatible,NA,451,left,18,,1,1596489488667,small,169,female,q,p,q,german,NA,NA,large,images/stimulus_small.jpg,small,NA,Mon Aug 03 2020 23:05:03 GMT+0200 (Mitteleuropäische Sommerzeit),1596488703807,No,13.081,56,experimental_trials_compatible
2089,right-handed,compatible,NA,485,right,18,,1,1596489488667,large,169,female,q,p,p,german,NA,NA,large,images/stimulus_large.jpg,small,NA,Mon Aug 03 2020 23:05:03 GMT+0200 (Mitteleuropäische Sommerzeit),1596488703807,No,13.081,57,experimental_trials_compatible
2089,right-handed,compatible,NA,510,left,18,,1,1596489488667,small,169,female,q,p,q,german,NA,NA,large,images/stimulus_small.jpg,small,NA,Mon Aug 03 2020 23:05:03 GMT+0200 (Mitteleuropäische Sommerzeit),1596488703807,No,13.081,58,experimental_trials_compatible
2089,right-handed,compatible,NA,411,left,18,,1,1596489488667,small,169,female,q,p,q,german,NA,NA,large,images/stimulus_small.jpg,small,NA,Mon Aug 03 2020 23:05:03 GMT+0200 (Mitteleuropäische Sommerzeit),1596488703807,No,13.081,59,experimental_trials_compatible
2089,right-handed,compatible,NA,486,left,18,,1,1596489488667,small,169,female,q,p,q,german,NA,NA,large,images/stimulus_small.jpg,small,NA,Mon Aug 03 2020 23:05:03 GMT+0200 (Mitteleuropäische Sommerzeit),1596488703807,No,13.081,60,experimental_trials_compatible
2088,left-handed,incompatible,NA,1878,right,21,,1,1596488620877,small,169,female,q,p,p,,NA,NA,small,images/stimulus_small.jpg,large,NA,Mon Aug 03 2020 22:49:09 GMT+0200 (Mitteleuropäische Sommerzeit),1596487749913,No,14.516066666666667,1,training_trials_incompatible
2088,left-handed,incompatible,NA,481,left,21,,1,1596488620877,large,169,female,q,p,q,,NA,NA,small,images/stimulus_large.jpg,large,NA,Mon Aug 03 2020 22:49:09 GMT+0200 (Mitteleuropäische Sommerzeit),1596487749913,No,14.516066666666667,2,training_trials_incompatible
2088,left-handed,incompatible,NA,482,left,21,,1,1596488620877,large,169,female,q,p,q,,NA,NA,small,images/stimulus_large.jpg,large,NA,Mon Aug 03 2020 22:49:09 GMT+0200 (Mitteleuropäische Sommerzeit),1596487749913,No,14.516066666666667,3,training_trials_incompatible
2088,left-handed,incompatible,NA,515,right,21,,1,1596488620877,small,169,female,q,p,p,,NA,NA,small,images/stimulus_small.jpg,large,NA,Mon Aug 03 2020 22:49:09 GMT+0200 (Mitteleuropäische Sommerzeit),1596487749913,No,14.516066666666667,4,training_trials_incompatible
2088,left-handed,incompatible,NA,453,left,21,,1,1596488620877,large,169,female,q,p,q,,NA,NA,small,images/stimulus_large.jpg,large,NA,Mon Aug 03 2020 22:49:09 GMT+0200 (Mitteleuropäische Sommerzeit),1596487749913,No,14.516066666666667,5,training_trials_incompatible
2088,left-handed,incompatible,NA,406,left,21,,1,1596488620877,large,169,female,q,p,q,,NA,NA,small,images/stimulus_large.jpg,large,NA,Mon Aug 03 2020 22:49:09 GMT+0200 (Mitteleuropäische Sommerzeit),1596487749913,No,14.516066666666667,6,training_trials_incompatible
2088,left-handed,incompatible,NA,429,left,21,,1,1596488620877,large,169,female,q,p,q,,NA,NA,small,images/stimulus_large.jpg,large,NA,Mon Aug 03 2020 22:49:09 GMT+0200 (Mitteleuropäische Sommerzeit),1596487749913,No,14.516066666666667,7,training_trials_incompatible
2088,left-handed,incompatible,NA,481,right,21,,1,1596488620877,small,169,female,q,p,p,,NA,NA,small,images/stimulus_small.jpg,large,NA,Mon Aug 03 2020 22:49:09 GMT+0200 (Mitteleuropäische Sommerzeit),1596487749913,No,14.516066666666667,8,training_trials_incompatible
2088,left-handed,incompatible,NA,468,right,21,,1,1596488620877,small,169,female,q,p,p,,NA,NA,small,images/stimulus_small.jpg,large,NA,Mon Aug 03 2020 22:49:09 GMT+0200 (Mitteleuropäische Sommerzeit),1596487749913,No,14.516066666666667,9,training_trials_incompatible
2088,left-handed,incompatible,NA,487,right,21,,1,1596488620877,small,169,female,q,p,p,,NA,NA,small,images/stimulus_small.jpg,large,NA,Mon Aug 03 2020 22:49:09 GMT+0200 (Mitteleuropäische Sommerzeit),1596487749913,No,14.516066666666667,10,training_trials_incompatible
2088,left-handed,incompatible,NA,604,left,21,,1,1596488620877,large,169,female,q,p,q,,NA,NA,small,images/stimulus_large.jpg,large,NA,Mon Aug 03 2020 22:49:09 GMT+0200 (Mitteleuropäische Sommerzeit),1596487749913,No,14.516066666666667,1,experimental_trials_incompatible
2088,left-handed,incompatible,NA,536,right,21,,1,1596488620877,small,169,female,q,p,p,,NA,NA,small,images/stimulus_small.jpg,large,NA,Mon Aug 03 2020 22:49:09 GMT+0200 (Mitteleuropäische Sommerzeit),1596487749913,No,14.516066666666667,2,experimental_trials_incompatible
2088,left-handed,incompatible,NA,425,left,21,,1,1596488620877,large,169,female,q,p,q,,NA,NA,small,images/stimulus_large.jpg,large,NA,Mon Aug 03 2020 22:49:09 GMT+0200 (Mitteleuropäische Sommerzeit),1596487749913,No,14.516066666666667,3,experimental_trials_incompatible
2088,left-handed,incompatible,NA,493,right,21,,1,1596488620877,small,169,female,q,p,p,,NA,NA,small,images/stimulus_small.jpg,large,NA,Mon Aug 03 2020 22:49:09 GMT+0200 (Mitteleuropäische Sommerzeit),1596487749913,No,14.516066666666667,4,experimental_trials_incompatible
2088,left-handed,incompatible,NA,478,right,21,,1,1596488620877,small,169,female,q,p,p,,NA,NA,small,images/stimulus_small.jpg,large,NA,Mon Aug 03 2020 22:49:09 GMT+0200 (Mitteleuropäische Sommerzeit),1596487749913,No,14.516066666666667,5,experimental_trials_incompatible
