submission_id,Mapping,QUD,RT,Response,age,comments,correctness,education,endTime,expected,experiment_id,gender,handedness,key1,key2,key_pressed,languages,option1,option2,p,picture,q,question,startDate,startTime,technical_issues,timeSpent,trial_number,trial_type
1762,compatible,NA,973,left,20,"1. zu lange Testphase bei 1 und 3 (nach 3-4 mal hat mans verstanden). Kurze Testphase bei 2 wäre ganz gut, muss erstmal bemerken wo man drücken muss.\n2. sehr lange richtige Phasen bei 1 und 3, Konzentration könnte schon abnehmen und besonders beim letzten, hat man keine Lust mehr und wird schneller mal unkonzentriert.\n3. Bei Triangle/Circle braucht man immer seine Zeit um mit Maus (oder auf Mauspad) zum nächsten Knopf zu wechseln. Daher sobald ein zweites Dreieck hintereinander kommt, klickt man schneller als wenn man mit der Maus wechseln muss. Dies hat aber natürlich weniger mit der Erkennungszeit (was für ein Symbol das ist) an sich zu tun, als mit welche Mausart man benutzt oder wie man die Maus strategisch vorher platziert.\n4. Bei mir hat das erste Bild des Kreises/des Triangles langsam geladen. Kann aber auch am Internet hängen, aber sowas verzögert natürlich auch nochmal die Zeit.",1,Graduated High School,1595690932560,small,165,female,right-handed,q,p,q,german,NA,NA,large,images/stimulus_small.jpg,small,NA,Sat Jul 25 2020 17:08:37 GMT+0200 (Mitteleuropäische Sommerzeit),1595689717920,No,20.244,1,training_trials_compatible
1762,compatible,NA,423,right,20,"1. zu lange Testphase bei 1 und 3 (nach 3-4 mal hat mans verstanden). Kurze Testphase bei 2 wäre ganz gut, muss erstmal bemerken wo man drücken muss.\n2. sehr lange richtige Phasen bei 1 und 3, Konzentration könnte schon abnehmen und besonders beim letzten, hat man keine Lust mehr und wird schneller mal unkonzentriert.\n3. Bei Triangle/Circle braucht man immer seine Zeit um mit Maus (oder auf Mauspad) zum nächsten Knopf zu wechseln. Daher sobald ein zweites Dreieck hintereinander kommt, klickt man schneller als wenn man mit der Maus wechseln muss. Dies hat aber natürlich weniger mit der Erkennungszeit (was für ein Symbol das ist) an sich zu tun, als mit welche Mausart man benutzt oder wie man die Maus strategisch vorher platziert.\n4. Bei mir hat das erste Bild des Kreises/des Triangles langsam geladen. Kann aber auch am Internet hängen, aber sowas verzögert natürlich auch nochmal die Zeit.",1,Graduated High School,1595690932560,large,165,female,right-handed,q,p,p,german,NA,NA,large,images/stimulus_large.jpg,small,NA,Sat Jul 25 2020 17:08:37 GMT+0200 (Mitteleuropäische Sommerzeit),1595689717920,No,20.244,2,training_trials_compatible
1762,compatible,NA,430,left,20,"1. zu lange Testphase bei 1 und 3 (nach 3-4 mal hat mans verstanden). Kurze Testphase bei 2 wäre ganz gut, muss erstmal bemerken wo man drücken muss.\n2. sehr lange richtige Phasen bei 1 und 3, Konzentration könnte schon abnehmen und besonders beim letzten, hat man keine Lust mehr und wird schneller mal unkonzentriert.\n3. Bei Triangle/Circle braucht man immer seine Zeit um mit Maus (oder auf Mauspad) zum nächsten Knopf zu wechseln. Daher sobald ein zweites Dreieck hintereinander kommt, klickt man schneller als wenn man mit der Maus wechseln muss. Dies hat aber natürlich weniger mit der Erkennungszeit (was für ein Symbol das ist) an sich zu tun, als mit welche Mausart man benutzt oder wie man die Maus strategisch vorher platziert.\n4. Bei mir hat das erste Bild des Kreises/des Triangles langsam geladen. Kann aber auch am Internet hängen, aber sowas verzögert natürlich auch nochmal die Zeit.",1,Graduated High School,1595690932560,small,165,female,right-handed,q,p,q,german,NA,NA,large,images/stimulus_small.jpg,small,NA,Sat Jul 25 2020 17:08:37 GMT+0200 (Mitteleuropäische Sommerzeit),1595689717920,No,20.244,3,training_trials_compatible
1762,compatible,NA,352,right,20,"1. zu lange Testphase bei 1 und 3 (nach 3-4 mal hat mans verstanden). Kurze Testphase bei 2 wäre ganz gut, muss erstmal bemerken wo man drücken muss.\n2. sehr lange richtige Phasen bei 1 und 3, Konzentration könnte schon abnehmen und besonders beim letzten, hat man keine Lust mehr und wird schneller mal unkonzentriert.\n3. Bei Triangle/Circle braucht man immer seine Zeit um mit Maus (oder auf Mauspad) zum nächsten Knopf zu wechseln. Daher sobald ein zweites Dreieck hintereinander kommt, klickt man schneller als wenn man mit der Maus wechseln muss. Dies hat aber natürlich weniger mit der Erkennungszeit (was für ein Symbol das ist) an sich zu tun, als mit welche Mausart man benutzt oder wie man die Maus strategisch vorher platziert.\n4. Bei mir hat das erste Bild des Kreises/des Triangles langsam geladen. Kann aber auch am Internet hängen, aber sowas verzögert natürlich auch nochmal die Zeit.",1,Graduated High School,1595690932560,large,165,female,right-handed,q,p,p,german,NA,NA,large,images/stimulus_large.jpg,small,NA,Sat Jul 25 2020 17:08:37 GMT+0200 (Mitteleuropäische Sommerzeit),1595689717920,No,20.244,4,training_trials_compatible
1762,compatible,NA,391,right,20,"1. zu lange Testphase bei 1 und 3 (nach 3-4 mal hat mans verstanden). Kurze Testphase bei 2 wäre ganz gut, muss erstmal bemerken wo man drücken muss.\n2. sehr lange richtige Phasen bei 1 und 3, Konzentration könnte schon abnehmen und besonders beim letzten, hat man keine Lust mehr und wird schneller mal unkonzentriert.\n3. Bei Triangle/Circle braucht man immer seine Zeit um mit Maus (oder auf Mauspad) zum nächsten Knopf zu wechseln. Daher sobald ein zweites Dreieck hintereinander kommt, klickt man schneller als wenn man mit der Maus wechseln muss. Dies hat aber natürlich weniger mit der Erkennungszeit (was für ein Symbol das ist) an sich zu tun, als mit welche Mausart man benutzt oder wie man die Maus strategisch vorher platziert.\n4. Bei mir hat das erste Bild des Kreises/des Triangles langsam geladen. Kann aber auch am Internet hängen, aber sowas verzögert natürlich auch nochmal die Zeit.",1,Graduated High School,1595690932560,large,165,female,right-handed,q,p,p,german,NA,NA,large,images/stimulus_large.jpg,small,NA,Sat Jul 25 2020 17:08:37 GMT+0200 (Mitteleuropäische Sommerzeit),1595689717920,No,20.244,5,training_trials_compatible
1762,compatible,NA,498,right,20,"1. zu lange Testphase bei 1 und 3 (nach 3-4 mal hat mans verstanden). Kurze Testphase bei 2 wäre ganz gut, muss erstmal bemerken wo man drücken muss.\n2. sehr lange richtige Phasen bei 1 und 3, Konzentration könnte schon abnehmen und besonders beim letzten, hat man keine Lust mehr und wird schneller mal unkonzentriert.\n3. Bei Triangle/Circle braucht man immer seine Zeit um mit Maus (oder auf Mauspad) zum nächsten Knopf zu wechseln. Daher sobald ein zweites Dreieck hintereinander kommt, klickt man schneller als wenn man mit der Maus wechseln muss. Dies hat aber natürlich weniger mit der Erkennungszeit (was für ein Symbol das ist) an sich zu tun, als mit welche Mausart man benutzt oder wie man die Maus strategisch vorher platziert.\n4. Bei mir hat das erste Bild des Kreises/des Triangles langsam geladen. Kann aber auch am Internet hängen, aber sowas verzögert natürlich auch nochmal die Zeit.",1,Graduated High School,1595690932560,large,165,female,right-handed,q,p,p,german,NA,NA,large,images/stimulus_large.jpg,small,NA,Sat Jul 25 2020 17:08:37 GMT+0200 (Mitteleuropäische Sommerzeit),1595689717920,No,20.244,6,training_trials_compatible
1762,compatible,NA,517,right,20,"1. zu lange Testphase bei 1 und 3 (nach 3-4 mal hat mans verstanden). Kurze Testphase bei 2 wäre ganz gut, muss erstmal bemerken wo man drücken muss.\n2. sehr lange richtige Phasen bei 1 und 3, Konzentration könnte schon abnehmen und besonders beim letzten, hat man keine Lust mehr und wird schneller mal unkonzentriert.\n3. Bei Triangle/Circle braucht man immer seine Zeit um mit Maus (oder auf Mauspad) zum nächsten Knopf zu wechseln. Daher sobald ein zweites Dreieck hintereinander kommt, klickt man schneller als wenn man mit der Maus wechseln muss. Dies hat aber natürlich weniger mit der Erkennungszeit (was für ein Symbol das ist) an sich zu tun, als mit welche Mausart man benutzt oder wie man die Maus strategisch vorher platziert.\n4. Bei mir hat das erste Bild des Kreises/des Triangles langsam geladen. Kann aber auch am Internet hängen, aber sowas verzögert natürlich auch nochmal die Zeit.",1,Graduated High School,1595690932560,large,165,female,right-handed,q,p,p,german,NA,NA,large,images/stimulus_large.jpg,small,NA,Sat Jul 25 2020 17:08:37 GMT+0200 (Mitteleuropäische Sommerzeit),1595689717920,No,20.244,7,training_trials_compatible
1762,compatible,NA,469,right,20,"1. zu lange Testphase bei 1 und 3 (nach 3-4 mal hat mans verstanden). Kurze Testphase bei 2 wäre ganz gut, muss erstmal bemerken wo man drücken muss.\n2. sehr lange richtige Phasen bei 1 und 3, Konzentration könnte schon abnehmen und besonders beim letzten, hat man keine Lust mehr und wird schneller mal unkonzentriert.\n3. Bei Triangle/Circle braucht man immer seine Zeit um mit Maus (oder auf Mauspad) zum nächsten Knopf zu wechseln. Daher sobald ein zweites Dreieck hintereinander kommt, klickt man schneller als wenn man mit der Maus wechseln muss. Dies hat aber natürlich weniger mit der Erkennungszeit (was für ein Symbol das ist) an sich zu tun, als mit welche Mausart man benutzt oder wie man die Maus strategisch vorher platziert.\n4. Bei mir hat das erste Bild des Kreises/des Triangles langsam geladen. Kann aber auch am Internet hängen, aber sowas verzögert natürlich auch nochmal die Zeit.",1,Graduated High School,1595690932560,large,165,female,right-handed,q,p,p,german,NA,NA,large,images/stimulus_large.jpg,small,NA,Sat Jul 25 2020 17:08:37 GMT+0200 (Mitteleuropäische Sommerzeit),1595689717920,No,20.244,8,training_trials_compatible
1762,compatible,NA,433,right,20,"1. zu lange Testphase bei 1 und 3 (nach 3-4 mal hat mans verstanden). Kurze Testphase bei 2 wäre ganz gut, muss erstmal bemerken wo man drücken muss.\n2. sehr lange richtige Phasen bei 1 und 3, Konzentration könnte schon abnehmen und besonders beim letzten, hat man keine Lust mehr und wird schneller mal unkonzentriert.\n3. Bei Triangle/Circle braucht man immer seine Zeit um mit Maus (oder auf Mauspad) zum nächsten Knopf zu wechseln. Daher sobald ein zweites Dreieck hintereinander kommt, klickt man schneller als wenn man mit der Maus wechseln muss. Dies hat aber natürlich weniger mit der Erkennungszeit (was für ein Symbol das ist) an sich zu tun, als mit welche Mausart man benutzt oder wie man die Maus strategisch vorher platziert.\n4. Bei mir hat das erste Bild des Kreises/des Triangles langsam geladen. Kann aber auch am Internet hängen, aber sowas verzögert natürlich auch nochmal die Zeit.",1,Graduated High School,1595690932560,large,165,female,right-handed,q,p,p,german,NA,NA,large,images/stimulus_large.jpg,small,NA,Sat Jul 25 2020 17:08:37 GMT+0200 (Mitteleuropäische Sommerzeit),1595689717920,No,20.244,9,training_trials_compatible
1762,compatible,NA,420,left,20,"1. zu lange Testphase bei 1 und 3 (nach 3-4 mal hat mans verstanden). Kurze Testphase bei 2 wäre ganz gut, muss erstmal bemerken wo man drücken muss.\n2. sehr lange richtige Phasen bei 1 und 3, Konzentration könnte schon abnehmen und besonders beim letzten, hat man keine Lust mehr und wird schneller mal unkonzentriert.\n3. Bei Triangle/Circle braucht man immer seine Zeit um mit Maus (oder auf Mauspad) zum nächsten Knopf zu wechseln. Daher sobald ein zweites Dreieck hintereinander kommt, klickt man schneller als wenn man mit der Maus wechseln muss. Dies hat aber natürlich weniger mit der Erkennungszeit (was für ein Symbol das ist) an sich zu tun, als mit welche Mausart man benutzt oder wie man die Maus strategisch vorher platziert.\n4. Bei mir hat das erste Bild des Kreises/des Triangles langsam geladen. Kann aber auch am Internet hängen, aber sowas verzögert natürlich auch nochmal die Zeit.",1,Graduated High School,1595690932560,small,165,female,right-handed,q,p,q,german,NA,NA,large,images/stimulus_small.jpg,small,NA,Sat Jul 25 2020 17:08:37 GMT+0200 (Mitteleuropäische Sommerzeit),1595689717920,No,20.244,10,training_trials_compatible
1762,compatible,NA,413,left,20,"1. zu lange Testphase bei 1 und 3 (nach 3-4 mal hat mans verstanden). Kurze Testphase bei 2 wäre ganz gut, muss erstmal bemerken wo man drücken muss.\n2. sehr lange richtige Phasen bei 1 und 3, Konzentration könnte schon abnehmen und besonders beim letzten, hat man keine Lust mehr und wird schneller mal unkonzentriert.\n3. Bei Triangle/Circle braucht man immer seine Zeit um mit Maus (oder auf Mauspad) zum nächsten Knopf zu wechseln. Daher sobald ein zweites Dreieck hintereinander kommt, klickt man schneller als wenn man mit der Maus wechseln muss. Dies hat aber natürlich weniger mit der Erkennungszeit (was für ein Symbol das ist) an sich zu tun, als mit welche Mausart man benutzt oder wie man die Maus strategisch vorher platziert.\n4. Bei mir hat das erste Bild des Kreises/des Triangles langsam geladen. Kann aber auch am Internet hängen, aber sowas verzögert natürlich auch nochmal die Zeit.",1,Graduated High School,1595690932560,small,165,female,right-handed,q,p,q,german,NA,NA,large,images/stimulus_small.jpg,small,NA,Sat Jul 25 2020 17:08:37 GMT+0200 (Mitteleuropäische Sommerzeit),1595689717920,No,20.244,1,experimental_trials_compatible
1762,compatible,NA,385,left,20,"1. zu lange Testphase bei 1 und 3 (nach 3-4 mal hat mans verstanden). Kurze Testphase bei 2 wäre ganz gut, muss erstmal bemerken wo man drücken muss.\n2. sehr lange richtige Phasen bei 1 und 3, Konzentration könnte schon abnehmen und besonders beim letzten, hat man keine Lust mehr und wird schneller mal unkonzentriert.\n3. Bei Triangle/Circle braucht man immer seine Zeit um mit Maus (oder auf Mauspad) zum nächsten Knopf zu wechseln. Daher sobald ein zweites Dreieck hintereinander kommt, klickt man schneller als wenn man mit der Maus wechseln muss. Dies hat aber natürlich weniger mit der Erkennungszeit (was für ein Symbol das ist) an sich zu tun, als mit welche Mausart man benutzt oder wie man die Maus strategisch vorher platziert.\n4. Bei mir hat das erste Bild des Kreises/des Triangles langsam geladen. Kann aber auch am Internet hängen, aber sowas verzögert natürlich auch nochmal die Zeit.",1,Graduated High School,1595690932560,small,165,female,right-handed,q,p,q,german,NA,NA,large,images/stimulus_small.jpg,small,NA,Sat Jul 25 2020 17:08:37 GMT+0200 (Mitteleuropäische Sommerzeit),1595689717920,No,20.244,2,experimental_trials_compatible
1762,compatible,NA,357,right,20,"1. zu lange Testphase bei 1 und 3 (nach 3-4 mal hat mans verstanden). Kurze Testphase bei 2 wäre ganz gut, muss erstmal bemerken wo man drücken muss.\n2. sehr lange richtige Phasen bei 1 und 3, Konzentration könnte schon abnehmen und besonders beim letzten, hat man keine Lust mehr und wird schneller mal unkonzentriert.\n3. Bei Triangle/Circle braucht man immer seine Zeit um mit Maus (oder auf Mauspad) zum nächsten Knopf zu wechseln. Daher sobald ein zweites Dreieck hintereinander kommt, klickt man schneller als wenn man mit der Maus wechseln muss. Dies hat aber natürlich weniger mit der Erkennungszeit (was für ein Symbol das ist) an sich zu tun, als mit welche Mausart man benutzt oder wie man die Maus strategisch vorher platziert.\n4. Bei mir hat das erste Bild des Kreises/des Triangles langsam geladen. Kann aber auch am Internet hängen, aber sowas verzögert natürlich auch nochmal die Zeit.",1,Graduated High School,1595690932560,large,165,female,right-handed,q,p,p,german,NA,NA,large,images/stimulus_large.jpg,small,NA,Sat Jul 25 2020 17:08:37 GMT+0200 (Mitteleuropäische Sommerzeit),1595689717920,No,20.244,3,experimental_trials_compatible
1762,compatible,NA,418,right,20,"1. zu lange Testphase bei 1 und 3 (nach 3-4 mal hat mans verstanden). Kurze Testphase bei 2 wäre ganz gut, muss erstmal bemerken wo man drücken muss.\n2. sehr lange richtige Phasen bei 1 und 3, Konzentration könnte schon abnehmen und besonders beim letzten, hat man keine Lust mehr und wird schneller mal unkonzentriert.\n3. Bei Triangle/Circle braucht man immer seine Zeit um mit Maus (oder auf Mauspad) zum nächsten Knopf zu wechseln. Daher sobald ein zweites Dreieck hintereinander kommt, klickt man schneller als wenn man mit der Maus wechseln muss. Dies hat aber natürlich weniger mit der Erkennungszeit (was für ein Symbol das ist) an sich zu tun, als mit welche Mausart man benutzt oder wie man die Maus strategisch vorher platziert.\n4. Bei mir hat das erste Bild des Kreises/des Triangles langsam geladen. Kann aber auch am Internet hängen, aber sowas verzögert natürlich auch nochmal die Zeit.",1,Graduated High School,1595690932560,large,165,female,right-handed,q,p,p,german,NA,NA,large,images/stimulus_large.jpg,small,NA,Sat Jul 25 2020 17:08:37 GMT+0200 (Mitteleuropäische Sommerzeit),1595689717920,No,20.244,4,experimental_trials_compatible
1762,compatible,NA,356,right,20,"1. zu lange Testphase bei 1 und 3 (nach 3-4 mal hat mans verstanden). Kurze Testphase bei 2 wäre ganz gut, muss erstmal bemerken wo man drücken muss.\n2. sehr lange richtige Phasen bei 1 und 3, Konzentration könnte schon abnehmen und besonders beim letzten, hat man keine Lust mehr und wird schneller mal unkonzentriert.\n3. Bei Triangle/Circle braucht man immer seine Zeit um mit Maus (oder auf Mauspad) zum nächsten Knopf zu wechseln. Daher sobald ein zweites Dreieck hintereinander kommt, klickt man schneller als wenn man mit der Maus wechseln muss. Dies hat aber natürlich weniger mit der Erkennungszeit (was für ein Symbol das ist) an sich zu tun, als mit welche Mausart man benutzt oder wie man die Maus strategisch vorher platziert.\n4. Bei mir hat das erste Bild des Kreises/des Triangles langsam geladen. Kann aber auch am Internet hängen, aber sowas verzögert natürlich auch nochmal die Zeit.",1,Graduated High School,1595690932560,large,165,female,right-handed,q,p,p,german,NA,NA,large,images/stimulus_large.jpg,small,NA,Sat Jul 25 2020 17:08:37 GMT+0200 (Mitteleuropäische Sommerzeit),1595689717920,No,20.244,5,experimental_trials_compatible
1762,compatible,NA,371,left,20,"1. zu lange Testphase bei 1 und 3 (nach 3-4 mal hat mans verstanden). Kurze Testphase bei 2 wäre ganz gut, muss erstmal bemerken wo man drücken muss.\n2. sehr lange richtige Phasen bei 1 und 3, Konzentration könnte schon abnehmen und besonders beim letzten, hat man keine Lust mehr und wird schneller mal unkonzentriert.\n3. Bei Triangle/Circle braucht man immer seine Zeit um mit Maus (oder auf Mauspad) zum nächsten Knopf zu wechseln. Daher sobald ein zweites Dreieck hintereinander kommt, klickt man schneller als wenn man mit der Maus wechseln muss. Dies hat aber natürlich weniger mit der Erkennungszeit (was für ein Symbol das ist) an sich zu tun, als mit welche Mausart man benutzt oder wie man die Maus strategisch vorher platziert.\n4. Bei mir hat das erste Bild des Kreises/des Triangles langsam geladen. Kann aber auch am Internet hängen, aber sowas verzögert natürlich auch nochmal die Zeit.",1,Graduated High School,1595690932560,small,165,female,right-handed,q,p,q,german,NA,NA,large,images/stimulus_small.jpg,small,NA,Sat Jul 25 2020 17:08:37 GMT+0200 (Mitteleuropäische Sommerzeit),1595689717920,No,20.244,6,experimental_trials_compatible
1762,compatible,NA,413,left,20,"1. zu lange Testphase bei 1 und 3 (nach 3-4 mal hat mans verstanden). Kurze Testphase bei 2 wäre ganz gut, muss erstmal bemerken wo man drücken muss.\n2. sehr lange richtige Phasen bei 1 und 3, Konzentration könnte schon abnehmen und besonders beim letzten, hat man keine Lust mehr und wird schneller mal unkonzentriert.\n3. Bei Triangle/Circle braucht man immer seine Zeit um mit Maus (oder auf Mauspad) zum nächsten Knopf zu wechseln. Daher sobald ein zweites Dreieck hintereinander kommt, klickt man schneller als wenn man mit der Maus wechseln muss. Dies hat aber natürlich weniger mit der Erkennungszeit (was für ein Symbol das ist) an sich zu tun, als mit welche Mausart man benutzt oder wie man die Maus strategisch vorher platziert.\n4. Bei mir hat das erste Bild des Kreises/des Triangles langsam geladen. Kann aber auch am Internet hängen, aber sowas verzögert natürlich auch nochmal die Zeit.",1,Graduated High School,1595690932560,small,165,female,right-handed,q,p,q,german,NA,NA,large,images/stimulus_small.jpg,small,NA,Sat Jul 25 2020 17:08:37 GMT+0200 (Mitteleuropäische Sommerzeit),1595689717920,No,20.244,7,experimental_trials_compatible
1762,compatible,NA,522,left,20,"1. zu lange Testphase bei 1 und 3 (nach 3-4 mal hat mans verstanden). Kurze Testphase bei 2 wäre ganz gut, muss erstmal bemerken wo man drücken muss.\n2. sehr lange richtige Phasen bei 1 und 3, Konzentration könnte schon abnehmen und besonders beim letzten, hat man keine Lust mehr und wird schneller mal unkonzentriert.\n3. Bei Triangle/Circle braucht man immer seine Zeit um mit Maus (oder auf Mauspad) zum nächsten Knopf zu wechseln. Daher sobald ein zweites Dreieck hintereinander kommt, klickt man schneller als wenn man mit der Maus wechseln muss. Dies hat aber natürlich weniger mit der Erkennungszeit (was für ein Symbol das ist) an sich zu tun, als mit welche Mausart man benutzt oder wie man die Maus strategisch vorher platziert.\n4. Bei mir hat das erste Bild des Kreises/des Triangles langsam geladen. Kann aber auch am Internet hängen, aber sowas verzögert natürlich auch nochmal die Zeit.",1,Graduated High School,1595690932560,small,165,female,right-handed,q,p,q,german,NA,NA,large,images/stimulus_small.jpg,small,NA,Sat Jul 25 2020 17:08:37 GMT+0200 (Mitteleuropäische Sommerzeit),1595689717920,No,20.244,8,experimental_trials_compatible
1762,compatible,NA,539,right,20,"1. zu lange Testphase bei 1 und 3 (nach 3-4 mal hat mans verstanden). Kurze Testphase bei 2 wäre ganz gut, muss erstmal bemerken wo man drücken muss.\n2. sehr lange richtige Phasen bei 1 und 3, Konzentration könnte schon abnehmen und besonders beim letzten, hat man keine Lust mehr und wird schneller mal unkonzentriert.\n3. Bei Triangle/Circle braucht man immer seine Zeit um mit Maus (oder auf Mauspad) zum nächsten Knopf zu wechseln. Daher sobald ein zweites Dreieck hintereinander kommt, klickt man schneller als wenn man mit der Maus wechseln muss. Dies hat aber natürlich weniger mit der Erkennungszeit (was für ein Symbol das ist) an sich zu tun, als mit welche Mausart man benutzt oder wie man die Maus strategisch vorher platziert.\n4. Bei mir hat das erste Bild des Kreises/des Triangles langsam geladen. Kann aber auch am Internet hängen, aber sowas verzögert natürlich auch nochmal die Zeit.",1,Graduated High School,1595690932560,large,165,female,right-handed,q,p,p,german,NA,NA,large,images/stimulus_large.jpg,small,NA,Sat Jul 25 2020 17:08:37 GMT+0200 (Mitteleuropäische Sommerzeit),1595689717920,No,20.244,9,experimental_trials_compatible
1762,compatible,NA,392,left,20,"1. zu lange Testphase bei 1 und 3 (nach 3-4 mal hat mans verstanden). Kurze Testphase bei 2 wäre ganz gut, muss erstmal bemerken wo man drücken muss.\n2. sehr lange richtige Phasen bei 1 und 3, Konzentration könnte schon abnehmen und besonders beim letzten, hat man keine Lust mehr und wird schneller mal unkonzentriert.\n3. Bei Triangle/Circle braucht man immer seine Zeit um mit Maus (oder auf Mauspad) zum nächsten Knopf zu wechseln. Daher sobald ein zweites Dreieck hintereinander kommt, klickt man schneller als wenn man mit der Maus wechseln muss. Dies hat aber natürlich weniger mit der Erkennungszeit (was für ein Symbol das ist) an sich zu tun, als mit welche Mausart man benutzt oder wie man die Maus strategisch vorher platziert.\n4. Bei mir hat das erste Bild des Kreises/des Triangles langsam geladen. Kann aber auch am Internet hängen, aber sowas verzögert natürlich auch nochmal die Zeit.",1,Graduated High School,1595690932560,small,165,female,right-handed,q,p,q,german,NA,NA,large,images/stimulus_small.jpg,small,NA,Sat Jul 25 2020 17:08:37 GMT+0200 (Mitteleuropäische Sommerzeit),1595689717920,No,20.244,10,experimental_trials_compatible
1762,compatible,NA,409,right,20,"1. zu lange Testphase bei 1 und 3 (nach 3-4 mal hat mans verstanden). Kurze Testphase bei 2 wäre ganz gut, muss erstmal bemerken wo man drücken muss.\n2. sehr lange richtige Phasen bei 1 und 3, Konzentration könnte schon abnehmen und besonders beim letzten, hat man keine Lust mehr und wird schneller mal unkonzentriert.\n3. Bei Triangle/Circle braucht man immer seine Zeit um mit Maus (oder auf Mauspad) zum nächsten Knopf zu wechseln. Daher sobald ein zweites Dreieck hintereinander kommt, klickt man schneller als wenn man mit der Maus wechseln muss. Dies hat aber natürlich weniger mit der Erkennungszeit (was für ein Symbol das ist) an sich zu tun, als mit welche Mausart man benutzt oder wie man die Maus strategisch vorher platziert.\n4. Bei mir hat das erste Bild des Kreises/des Triangles langsam geladen. Kann aber auch am Internet hängen, aber sowas verzögert natürlich auch nochmal die Zeit.",1,Graduated High School,1595690932560,large,165,female,right-handed,q,p,p,german,NA,NA,large,images/stimulus_large.jpg,small,NA,Sat Jul 25 2020 17:08:37 GMT+0200 (Mitteleuropäische Sommerzeit),1595689717920,No,20.244,11,experimental_trials_compatible
1762,compatible,NA,425,left,20,"1. zu lange Testphase bei 1 und 3 (nach 3-4 mal hat mans verstanden). Kurze Testphase bei 2 wäre ganz gut, muss erstmal bemerken wo man drücken muss.\n2. sehr lange richtige Phasen bei 1 und 3, Konzentration könnte schon abnehmen und besonders beim letzten, hat man keine Lust mehr und wird schneller mal unkonzentriert.\n3. Bei Triangle/Circle braucht man immer seine Zeit um mit Maus (oder auf Mauspad) zum nächsten Knopf zu wechseln. Daher sobald ein zweites Dreieck hintereinander kommt, klickt man schneller als wenn man mit der Maus wechseln muss. Dies hat aber natürlich weniger mit der Erkennungszeit (was für ein Symbol das ist) an sich zu tun, als mit welche Mausart man benutzt oder wie man die Maus strategisch vorher platziert.\n4. Bei mir hat das erste Bild des Kreises/des Triangles langsam geladen. Kann aber auch am Internet hängen, aber sowas verzögert natürlich auch nochmal die Zeit.",1,Graduated High School,1595690932560,small,165,female,right-handed,q,p,q,german,NA,NA,large,images/stimulus_small.jpg,small,NA,Sat Jul 25 2020 17:08:37 GMT+0200 (Mitteleuropäische Sommerzeit),1595689717920,No,20.244,12,experimental_trials_compatible
1762,compatible,NA,488,right,20,"1. zu lange Testphase bei 1 und 3 (nach 3-4 mal hat mans verstanden). Kurze Testphase bei 2 wäre ganz gut, muss erstmal bemerken wo man drücken muss.\n2. sehr lange richtige Phasen bei 1 und 3, Konzentration könnte schon abnehmen und besonders beim letzten, hat man keine Lust mehr und wird schneller mal unkonzentriert.\n3. Bei Triangle/Circle braucht man immer seine Zeit um mit Maus (oder auf Mauspad) zum nächsten Knopf zu wechseln. Daher sobald ein zweites Dreieck hintereinander kommt, klickt man schneller als wenn man mit der Maus wechseln muss. Dies hat aber natürlich weniger mit der Erkennungszeit (was für ein Symbol das ist) an sich zu tun, als mit welche Mausart man benutzt oder wie man die Maus strategisch vorher platziert.\n4. Bei mir hat das erste Bild des Kreises/des Triangles langsam geladen. Kann aber auch am Internet hängen, aber sowas verzögert natürlich auch nochmal die Zeit.",1,Graduated High School,1595690932560,large,165,female,right-handed,q,p,p,german,NA,NA,large,images/stimulus_large.jpg,small,NA,Sat Jul 25 2020 17:08:37 GMT+0200 (Mitteleuropäische Sommerzeit),1595689717920,No,20.244,13,experimental_trials_compatible
1762,compatible,NA,379,right,20,"1. zu lange Testphase bei 1 und 3 (nach 3-4 mal hat mans verstanden). Kurze Testphase bei 2 wäre ganz gut, muss erstmal bemerken wo man drücken muss.\n2. sehr lange richtige Phasen bei 1 und 3, Konzentration könnte schon abnehmen und besonders beim letzten, hat man keine Lust mehr und wird schneller mal unkonzentriert.\n3. Bei Triangle/Circle braucht man immer seine Zeit um mit Maus (oder auf Mauspad) zum nächsten Knopf zu wechseln. Daher sobald ein zweites Dreieck hintereinander kommt, klickt man schneller als wenn man mit der Maus wechseln muss. Dies hat aber natürlich weniger mit der Erkennungszeit (was für ein Symbol das ist) an sich zu tun, als mit welche Mausart man benutzt oder wie man die Maus strategisch vorher platziert.\n4. Bei mir hat das erste Bild des Kreises/des Triangles langsam geladen. Kann aber auch am Internet hängen, aber sowas verzögert natürlich auch nochmal die Zeit.",1,Graduated High School,1595690932560,large,165,female,right-handed,q,p,p,german,NA,NA,large,images/stimulus_large.jpg,small,NA,Sat Jul 25 2020 17:08:37 GMT+0200 (Mitteleuropäische Sommerzeit),1595689717920,No,20.244,14,experimental_trials_compatible
1762,compatible,NA,434,left,20,"1. zu lange Testphase bei 1 und 3 (nach 3-4 mal hat mans verstanden). Kurze Testphase bei 2 wäre ganz gut, muss erstmal bemerken wo man drücken muss.\n2. sehr lange richtige Phasen bei 1 und 3, Konzentration könnte schon abnehmen und besonders beim letzten, hat man keine Lust mehr und wird schneller mal unkonzentriert.\n3. Bei Triangle/Circle braucht man immer seine Zeit um mit Maus (oder auf Mauspad) zum nächsten Knopf zu wechseln. Daher sobald ein zweites Dreieck hintereinander kommt, klickt man schneller als wenn man mit der Maus wechseln muss. Dies hat aber natürlich weniger mit der Erkennungszeit (was für ein Symbol das ist) an sich zu tun, als mit welche Mausart man benutzt oder wie man die Maus strategisch vorher platziert.\n4. Bei mir hat das erste Bild des Kreises/des Triangles langsam geladen. Kann aber auch am Internet hängen, aber sowas verzögert natürlich auch nochmal die Zeit.",1,Graduated High School,1595690932560,small,165,female,right-handed,q,p,q,german,NA,NA,large,images/stimulus_small.jpg,small,NA,Sat Jul 25 2020 17:08:37 GMT+0200 (Mitteleuropäische Sommerzeit),1595689717920,No,20.244,15,experimental_trials_compatible
1762,compatible,NA,422,right,20,"1. zu lange Testphase bei 1 und 3 (nach 3-4 mal hat mans verstanden). Kurze Testphase bei 2 wäre ganz gut, muss erstmal bemerken wo man drücken muss.\n2. sehr lange richtige Phasen bei 1 und 3, Konzentration könnte schon abnehmen und besonders beim letzten, hat man keine Lust mehr und wird schneller mal unkonzentriert.\n3. Bei Triangle/Circle braucht man immer seine Zeit um mit Maus (oder auf Mauspad) zum nächsten Knopf zu wechseln. Daher sobald ein zweites Dreieck hintereinander kommt, klickt man schneller als wenn man mit der Maus wechseln muss. Dies hat aber natürlich weniger mit der Erkennungszeit (was für ein Symbol das ist) an sich zu tun, als mit welche Mausart man benutzt oder wie man die Maus strategisch vorher platziert.\n4. Bei mir hat das erste Bild des Kreises/des Triangles langsam geladen. Kann aber auch am Internet hängen, aber sowas verzögert natürlich auch nochmal die Zeit.",1,Graduated High School,1595690932560,large,165,female,right-handed,q,p,p,german,NA,NA,large,images/stimulus_large.jpg,small,NA,Sat Jul 25 2020 17:08:37 GMT+0200 (Mitteleuropäische Sommerzeit),1595689717920,No,20.244,16,experimental_trials_compatible
1762,compatible,NA,438,right,20,"1. zu lange Testphase bei 1 und 3 (nach 3-4 mal hat mans verstanden). Kurze Testphase bei 2 wäre ganz gut, muss erstmal bemerken wo man drücken muss.\n2. sehr lange richtige Phasen bei 1 und 3, Konzentration könnte schon abnehmen und besonders beim letzten, hat man keine Lust mehr und wird schneller mal unkonzentriert.\n3. Bei Triangle/Circle braucht man immer seine Zeit um mit Maus (oder auf Mauspad) zum nächsten Knopf zu wechseln. Daher sobald ein zweites Dreieck hintereinander kommt, klickt man schneller als wenn man mit der Maus wechseln muss. Dies hat aber natürlich weniger mit der Erkennungszeit (was für ein Symbol das ist) an sich zu tun, als mit welche Mausart man benutzt oder wie man die Maus strategisch vorher platziert.\n4. Bei mir hat das erste Bild des Kreises/des Triangles langsam geladen. Kann aber auch am Internet hängen, aber sowas verzögert natürlich auch nochmal die Zeit.",1,Graduated High School,1595690932560,large,165,female,right-handed,q,p,p,german,NA,NA,large,images/stimulus_large.jpg,small,NA,Sat Jul 25 2020 17:08:37 GMT+0200 (Mitteleuropäische Sommerzeit),1595689717920,No,20.244,17,experimental_trials_compatible
1762,compatible,NA,447,left,20,"1. zu lange Testphase bei 1 und 3 (nach 3-4 mal hat mans verstanden). Kurze Testphase bei 2 wäre ganz gut, muss erstmal bemerken wo man drücken muss.\n2. sehr lange richtige Phasen bei 1 und 3, Konzentration könnte schon abnehmen und besonders beim letzten, hat man keine Lust mehr und wird schneller mal unkonzentriert.\n3. Bei Triangle/Circle braucht man immer seine Zeit um mit Maus (oder auf Mauspad) zum nächsten Knopf zu wechseln. Daher sobald ein zweites Dreieck hintereinander kommt, klickt man schneller als wenn man mit der Maus wechseln muss. Dies hat aber natürlich weniger mit der Erkennungszeit (was für ein Symbol das ist) an sich zu tun, als mit welche Mausart man benutzt oder wie man die Maus strategisch vorher platziert.\n4. Bei mir hat das erste Bild des Kreises/des Triangles langsam geladen. Kann aber auch am Internet hängen, aber sowas verzögert natürlich auch nochmal die Zeit.",1,Graduated High School,1595690932560,small,165,female,right-handed,q,p,q,german,NA,NA,large,images/stimulus_small.jpg,small,NA,Sat Jul 25 2020 17:08:37 GMT+0200 (Mitteleuropäische Sommerzeit),1595689717920,No,20.244,18,experimental_trials_compatible
1762,compatible,NA,467,left,20,"1. zu lange Testphase bei 1 und 3 (nach 3-4 mal hat mans verstanden). Kurze Testphase bei 2 wäre ganz gut, muss erstmal bemerken wo man drücken muss.\n2. sehr lange richtige Phasen bei 1 und 3, Konzentration könnte schon abnehmen und besonders beim letzten, hat man keine Lust mehr und wird schneller mal unkonzentriert.\n3. Bei Triangle/Circle braucht man immer seine Zeit um mit Maus (oder auf Mauspad) zum nächsten Knopf zu wechseln. Daher sobald ein zweites Dreieck hintereinander kommt, klickt man schneller als wenn man mit der Maus wechseln muss. Dies hat aber natürlich weniger mit der Erkennungszeit (was für ein Symbol das ist) an sich zu tun, als mit welche Mausart man benutzt oder wie man die Maus strategisch vorher platziert.\n4. Bei mir hat das erste Bild des Kreises/des Triangles langsam geladen. Kann aber auch am Internet hängen, aber sowas verzögert natürlich auch nochmal die Zeit.",1,Graduated High School,1595690932560,small,165,female,right-handed,q,p,q,german,NA,NA,large,images/stimulus_small.jpg,small,NA,Sat Jul 25 2020 17:08:37 GMT+0200 (Mitteleuropäische Sommerzeit),1595689717920,No,20.244,19,experimental_trials_compatible
1762,compatible,NA,441,left,20,"1. zu lange Testphase bei 1 und 3 (nach 3-4 mal hat mans verstanden). Kurze Testphase bei 2 wäre ganz gut, muss erstmal bemerken wo man drücken muss.\n2. sehr lange richtige Phasen bei 1 und 3, Konzentration könnte schon abnehmen und besonders beim letzten, hat man keine Lust mehr und wird schneller mal unkonzentriert.\n3. Bei Triangle/Circle braucht man immer seine Zeit um mit Maus (oder auf Mauspad) zum nächsten Knopf zu wechseln. Daher sobald ein zweites Dreieck hintereinander kommt, klickt man schneller als wenn man mit der Maus wechseln muss. Dies hat aber natürlich weniger mit der Erkennungszeit (was für ein Symbol das ist) an sich zu tun, als mit welche Mausart man benutzt oder wie man die Maus strategisch vorher platziert.\n4. Bei mir hat das erste Bild des Kreises/des Triangles langsam geladen. Kann aber auch am Internet hängen, aber sowas verzögert natürlich auch nochmal die Zeit.",1,Graduated High School,1595690932560,small,165,female,right-handed,q,p,q,german,NA,NA,large,images/stimulus_small.jpg,small,NA,Sat Jul 25 2020 17:08:37 GMT+0200 (Mitteleuropäische Sommerzeit),1595689717920,No,20.244,20,experimental_trials_compatible
1762,compatible,NA,348,right,20,"1. zu lange Testphase bei 1 und 3 (nach 3-4 mal hat mans verstanden). Kurze Testphase bei 2 wäre ganz gut, muss erstmal bemerken wo man drücken muss.\n2. sehr lange richtige Phasen bei 1 und 3, Konzentration könnte schon abnehmen und besonders beim letzten, hat man keine Lust mehr und wird schneller mal unkonzentriert.\n3. Bei Triangle/Circle braucht man immer seine Zeit um mit Maus (oder auf Mauspad) zum nächsten Knopf zu wechseln. Daher sobald ein zweites Dreieck hintereinander kommt, klickt man schneller als wenn man mit der Maus wechseln muss. Dies hat aber natürlich weniger mit der Erkennungszeit (was für ein Symbol das ist) an sich zu tun, als mit welche Mausart man benutzt oder wie man die Maus strategisch vorher platziert.\n4. Bei mir hat das erste Bild des Kreises/des Triangles langsam geladen. Kann aber auch am Internet hängen, aber sowas verzögert natürlich auch nochmal die Zeit.",1,Graduated High School,1595690932560,large,165,female,right-handed,q,p,p,german,NA,NA,large,images/stimulus_large.jpg,small,NA,Sat Jul 25 2020 17:08:37 GMT+0200 (Mitteleuropäische Sommerzeit),1595689717920,No,20.244,21,experimental_trials_compatible
1762,compatible,NA,388,right,20,"1. zu lange Testphase bei 1 und 3 (nach 3-4 mal hat mans verstanden). Kurze Testphase bei 2 wäre ganz gut, muss erstmal bemerken wo man drücken muss.\n2. sehr lange richtige Phasen bei 1 und 3, Konzentration könnte schon abnehmen und besonders beim letzten, hat man keine Lust mehr und wird schneller mal unkonzentriert.\n3. Bei Triangle/Circle braucht man immer seine Zeit um mit Maus (oder auf Mauspad) zum nächsten Knopf zu wechseln. Daher sobald ein zweites Dreieck hintereinander kommt, klickt man schneller als wenn man mit der Maus wechseln muss. Dies hat aber natürlich weniger mit der Erkennungszeit (was für ein Symbol das ist) an sich zu tun, als mit welche Mausart man benutzt oder wie man die Maus strategisch vorher platziert.\n4. Bei mir hat das erste Bild des Kreises/des Triangles langsam geladen. Kann aber auch am Internet hängen, aber sowas verzögert natürlich auch nochmal die Zeit.",1,Graduated High School,1595690932560,large,165,female,right-handed,q,p,p,german,NA,NA,large,images/stimulus_large.jpg,small,NA,Sat Jul 25 2020 17:08:37 GMT+0200 (Mitteleuropäische Sommerzeit),1595689717920,No,20.244,22,experimental_trials_compatible
1762,compatible,NA,474,right,20,"1. zu lange Testphase bei 1 und 3 (nach 3-4 mal hat mans verstanden). Kurze Testphase bei 2 wäre ganz gut, muss erstmal bemerken wo man drücken muss.\n2. sehr lange richtige Phasen bei 1 und 3, Konzentration könnte schon abnehmen und besonders beim letzten, hat man keine Lust mehr und wird schneller mal unkonzentriert.\n3. Bei Triangle/Circle braucht man immer seine Zeit um mit Maus (oder auf Mauspad) zum nächsten Knopf zu wechseln. Daher sobald ein zweites Dreieck hintereinander kommt, klickt man schneller als wenn man mit der Maus wechseln muss. Dies hat aber natürlich weniger mit der Erkennungszeit (was für ein Symbol das ist) an sich zu tun, als mit welche Mausart man benutzt oder wie man die Maus strategisch vorher platziert.\n4. Bei mir hat das erste Bild des Kreises/des Triangles langsam geladen. Kann aber auch am Internet hängen, aber sowas verzögert natürlich auch nochmal die Zeit.",1,Graduated High School,1595690932560,large,165,female,right-handed,q,p,p,german,NA,NA,large,images/stimulus_large.jpg,small,NA,Sat Jul 25 2020 17:08:37 GMT+0200 (Mitteleuropäische Sommerzeit),1595689717920,No,20.244,23,experimental_trials_compatible
1762,compatible,NA,454,left,20,"1. zu lange Testphase bei 1 und 3 (nach 3-4 mal hat mans verstanden). Kurze Testphase bei 2 wäre ganz gut, muss erstmal bemerken wo man drücken muss.\n2. sehr lange richtige Phasen bei 1 und 3, Konzentration könnte schon abnehmen und besonders beim letzten, hat man keine Lust mehr und wird schneller mal unkonzentriert.\n3. Bei Triangle/Circle braucht man immer seine Zeit um mit Maus (oder auf Mauspad) zum nächsten Knopf zu wechseln. Daher sobald ein zweites Dreieck hintereinander kommt, klickt man schneller als wenn man mit der Maus wechseln muss. Dies hat aber natürlich weniger mit der Erkennungszeit (was für ein Symbol das ist) an sich zu tun, als mit welche Mausart man benutzt oder wie man die Maus strategisch vorher platziert.\n4. Bei mir hat das erste Bild des Kreises/des Triangles langsam geladen. Kann aber auch am Internet hängen, aber sowas verzögert natürlich auch nochmal die Zeit.",1,Graduated High School,1595690932560,small,165,female,right-handed,q,p,q,german,NA,NA,large,images/stimulus_small.jpg,small,NA,Sat Jul 25 2020 17:08:37 GMT+0200 (Mitteleuropäische Sommerzeit),1595689717920,No,20.244,24,experimental_trials_compatible
1762,compatible,NA,428,right,20,"1. zu lange Testphase bei 1 und 3 (nach 3-4 mal hat mans verstanden). Kurze Testphase bei 2 wäre ganz gut, muss erstmal bemerken wo man drücken muss.\n2. sehr lange richtige Phasen bei 1 und 3, Konzentration könnte schon abnehmen und besonders beim letzten, hat man keine Lust mehr und wird schneller mal unkonzentriert.\n3. Bei Triangle/Circle braucht man immer seine Zeit um mit Maus (oder auf Mauspad) zum nächsten Knopf zu wechseln. Daher sobald ein zweites Dreieck hintereinander kommt, klickt man schneller als wenn man mit der Maus wechseln muss. Dies hat aber natürlich weniger mit der Erkennungszeit (was für ein Symbol das ist) an sich zu tun, als mit welche Mausart man benutzt oder wie man die Maus strategisch vorher platziert.\n4. Bei mir hat das erste Bild des Kreises/des Triangles langsam geladen. Kann aber auch am Internet hängen, aber sowas verzögert natürlich auch nochmal die Zeit.",1,Graduated High School,1595690932560,large,165,female,right-handed,q,p,p,german,NA,NA,large,images/stimulus_large.jpg,small,NA,Sat Jul 25 2020 17:08:37 GMT+0200 (Mitteleuropäische Sommerzeit),1595689717920,No,20.244,25,experimental_trials_compatible
1762,compatible,NA,391,right,20,"1. zu lange Testphase bei 1 und 3 (nach 3-4 mal hat mans verstanden). Kurze Testphase bei 2 wäre ganz gut, muss erstmal bemerken wo man drücken muss.\n2. sehr lange richtige Phasen bei 1 und 3, Konzentration könnte schon abnehmen und besonders beim letzten, hat man keine Lust mehr und wird schneller mal unkonzentriert.\n3. Bei Triangle/Circle braucht man immer seine Zeit um mit Maus (oder auf Mauspad) zum nächsten Knopf zu wechseln. Daher sobald ein zweites Dreieck hintereinander kommt, klickt man schneller als wenn man mit der Maus wechseln muss. Dies hat aber natürlich weniger mit der Erkennungszeit (was für ein Symbol das ist) an sich zu tun, als mit welche Mausart man benutzt oder wie man die Maus strategisch vorher platziert.\n4. Bei mir hat das erste Bild des Kreises/des Triangles langsam geladen. Kann aber auch am Internet hängen, aber sowas verzögert natürlich auch nochmal die Zeit.",1,Graduated High School,1595690932560,large,165,female,right-handed,q,p,p,german,NA,NA,large,images/stimulus_large.jpg,small,NA,Sat Jul 25 2020 17:08:37 GMT+0200 (Mitteleuropäische Sommerzeit),1595689717920,No,20.244,26,experimental_trials_compatible
1762,compatible,NA,434,right,20,"1. zu lange Testphase bei 1 und 3 (nach 3-4 mal hat mans verstanden). Kurze Testphase bei 2 wäre ganz gut, muss erstmal bemerken wo man drücken muss.\n2. sehr lange richtige Phasen bei 1 und 3, Konzentration könnte schon abnehmen und besonders beim letzten, hat man keine Lust mehr und wird schneller mal unkonzentriert.\n3. Bei Triangle/Circle braucht man immer seine Zeit um mit Maus (oder auf Mauspad) zum nächsten Knopf zu wechseln. Daher sobald ein zweites Dreieck hintereinander kommt, klickt man schneller als wenn man mit der Maus wechseln muss. Dies hat aber natürlich weniger mit der Erkennungszeit (was für ein Symbol das ist) an sich zu tun, als mit welche Mausart man benutzt oder wie man die Maus strategisch vorher platziert.\n4. Bei mir hat das erste Bild des Kreises/des Triangles langsam geladen. Kann aber auch am Internet hängen, aber sowas verzögert natürlich auch nochmal die Zeit.",1,Graduated High School,1595690932560,large,165,female,right-handed,q,p,p,german,NA,NA,large,images/stimulus_large.jpg,small,NA,Sat Jul 25 2020 17:08:37 GMT+0200 (Mitteleuropäische Sommerzeit),1595689717920,No,20.244,27,experimental_trials_compatible
1762,compatible,NA,471,right,20,"1. zu lange Testphase bei 1 und 3 (nach 3-4 mal hat mans verstanden). Kurze Testphase bei 2 wäre ganz gut, muss erstmal bemerken wo man drücken muss.\n2. sehr lange richtige Phasen bei 1 und 3, Konzentration könnte schon abnehmen und besonders beim letzten, hat man keine Lust mehr und wird schneller mal unkonzentriert.\n3. Bei Triangle/Circle braucht man immer seine Zeit um mit Maus (oder auf Mauspad) zum nächsten Knopf zu wechseln. Daher sobald ein zweites Dreieck hintereinander kommt, klickt man schneller als wenn man mit der Maus wechseln muss. Dies hat aber natürlich weniger mit der Erkennungszeit (was für ein Symbol das ist) an sich zu tun, als mit welche Mausart man benutzt oder wie man die Maus strategisch vorher platziert.\n4. Bei mir hat das erste Bild des Kreises/des Triangles langsam geladen. Kann aber auch am Internet hängen, aber sowas verzögert natürlich auch nochmal die Zeit.",1,Graduated High School,1595690932560,large,165,female,right-handed,q,p,p,german,NA,NA,large,images/stimulus_large.jpg,small,NA,Sat Jul 25 2020 17:08:37 GMT+0200 (Mitteleuropäische Sommerzeit),1595689717920,No,20.244,28,experimental_trials_compatible
1762,compatible,NA,541,left,20,"1. zu lange Testphase bei 1 und 3 (nach 3-4 mal hat mans verstanden). Kurze Testphase bei 2 wäre ganz gut, muss erstmal bemerken wo man drücken muss.\n2. sehr lange richtige Phasen bei 1 und 3, Konzentration könnte schon abnehmen und besonders beim letzten, hat man keine Lust mehr und wird schneller mal unkonzentriert.\n3. Bei Triangle/Circle braucht man immer seine Zeit um mit Maus (oder auf Mauspad) zum nächsten Knopf zu wechseln. Daher sobald ein zweites Dreieck hintereinander kommt, klickt man schneller als wenn man mit der Maus wechseln muss. Dies hat aber natürlich weniger mit der Erkennungszeit (was für ein Symbol das ist) an sich zu tun, als mit welche Mausart man benutzt oder wie man die Maus strategisch vorher platziert.\n4. Bei mir hat das erste Bild des Kreises/des Triangles langsam geladen. Kann aber auch am Internet hängen, aber sowas verzögert natürlich auch nochmal die Zeit.",1,Graduated High School,1595690932560,small,165,female,right-handed,q,p,q,german,NA,NA,large,images/stimulus_small.jpg,small,NA,Sat Jul 25 2020 17:08:37 GMT+0200 (Mitteleuropäische Sommerzeit),1595689717920,No,20.244,29,experimental_trials_compatible
1762,compatible,NA,443,left,20,"1. zu lange Testphase bei 1 und 3 (nach 3-4 mal hat mans verstanden). Kurze Testphase bei 2 wäre ganz gut, muss erstmal bemerken wo man drücken muss.\n2. sehr lange richtige Phasen bei 1 und 3, Konzentration könnte schon abnehmen und besonders beim letzten, hat man keine Lust mehr und wird schneller mal unkonzentriert.\n3. Bei Triangle/Circle braucht man immer seine Zeit um mit Maus (oder auf Mauspad) zum nächsten Knopf zu wechseln. Daher sobald ein zweites Dreieck hintereinander kommt, klickt man schneller als wenn man mit der Maus wechseln muss. Dies hat aber natürlich weniger mit der Erkennungszeit (was für ein Symbol das ist) an sich zu tun, als mit welche Mausart man benutzt oder wie man die Maus strategisch vorher platziert.\n4. Bei mir hat das erste Bild des Kreises/des Triangles langsam geladen. Kann aber auch am Internet hängen, aber sowas verzögert natürlich auch nochmal die Zeit.",1,Graduated High School,1595690932560,small,165,female,right-handed,q,p,q,german,NA,NA,large,images/stimulus_small.jpg,small,NA,Sat Jul 25 2020 17:08:37 GMT+0200 (Mitteleuropäische Sommerzeit),1595689717920,No,20.244,30,experimental_trials_compatible
1762,compatible,NA,370,right,20,"1. zu lange Testphase bei 1 und 3 (nach 3-4 mal hat mans verstanden). Kurze Testphase bei 2 wäre ganz gut, muss erstmal bemerken wo man drücken muss.\n2. sehr lange richtige Phasen bei 1 und 3, Konzentration könnte schon abnehmen und besonders beim letzten, hat man keine Lust mehr und wird schneller mal unkonzentriert.\n3. Bei Triangle/Circle braucht man immer seine Zeit um mit Maus (oder auf Mauspad) zum nächsten Knopf zu wechseln. Daher sobald ein zweites Dreieck hintereinander kommt, klickt man schneller als wenn man mit der Maus wechseln muss. Dies hat aber natürlich weniger mit der Erkennungszeit (was für ein Symbol das ist) an sich zu tun, als mit welche Mausart man benutzt oder wie man die Maus strategisch vorher platziert.\n4. Bei mir hat das erste Bild des Kreises/des Triangles langsam geladen. Kann aber auch am Internet hängen, aber sowas verzögert natürlich auch nochmal die Zeit.",1,Graduated High School,1595690932560,large,165,female,right-handed,q,p,p,german,NA,NA,large,images/stimulus_large.jpg,small,NA,Sat Jul 25 2020 17:08:37 GMT+0200 (Mitteleuropäische Sommerzeit),1595689717920,No,20.244,31,experimental_trials_compatible
1762,compatible,NA,357,right,20,"1. zu lange Testphase bei 1 und 3 (nach 3-4 mal hat mans verstanden). Kurze Testphase bei 2 wäre ganz gut, muss erstmal bemerken wo man drücken muss.\n2. sehr lange richtige Phasen bei 1 und 3, Konzentration könnte schon abnehmen und besonders beim letzten, hat man keine Lust mehr und wird schneller mal unkonzentriert.\n3. Bei Triangle/Circle braucht man immer seine Zeit um mit Maus (oder auf Mauspad) zum nächsten Knopf zu wechseln. Daher sobald ein zweites Dreieck hintereinander kommt, klickt man schneller als wenn man mit der Maus wechseln muss. Dies hat aber natürlich weniger mit der Erkennungszeit (was für ein Symbol das ist) an sich zu tun, als mit welche Mausart man benutzt oder wie man die Maus strategisch vorher platziert.\n4. Bei mir hat das erste Bild des Kreises/des Triangles langsam geladen. Kann aber auch am Internet hängen, aber sowas verzögert natürlich auch nochmal die Zeit.",1,Graduated High School,1595690932560,large,165,female,right-handed,q,p,p,german,NA,NA,large,images/stimulus_large.jpg,small,NA,Sat Jul 25 2020 17:08:37 GMT+0200 (Mitteleuropäische Sommerzeit),1595689717920,No,20.244,32,experimental_trials_compatible
1762,compatible,NA,454,left,20,"1. zu lange Testphase bei 1 und 3 (nach 3-4 mal hat mans verstanden). Kurze Testphase bei 2 wäre ganz gut, muss erstmal bemerken wo man drücken muss.\n2. sehr lange richtige Phasen bei 1 und 3, Konzentration könnte schon abnehmen und besonders beim letzten, hat man keine Lust mehr und wird schneller mal unkonzentriert.\n3. Bei Triangle/Circle braucht man immer seine Zeit um mit Maus (oder auf Mauspad) zum nächsten Knopf zu wechseln. Daher sobald ein zweites Dreieck hintereinander kommt, klickt man schneller als wenn man mit der Maus wechseln muss. Dies hat aber natürlich weniger mit der Erkennungszeit (was für ein Symbol das ist) an sich zu tun, als mit welche Mausart man benutzt oder wie man die Maus strategisch vorher platziert.\n4. Bei mir hat das erste Bild des Kreises/des Triangles langsam geladen. Kann aber auch am Internet hängen, aber sowas verzögert natürlich auch nochmal die Zeit.",1,Graduated High School,1595690932560,small,165,female,right-handed,q,p,q,german,NA,NA,large,images/stimulus_small.jpg,small,NA,Sat Jul 25 2020 17:08:37 GMT+0200 (Mitteleuropäische Sommerzeit),1595689717920,No,20.244,33,experimental_trials_compatible
1762,compatible,NA,592,left,20,"1. zu lange Testphase bei 1 und 3 (nach 3-4 mal hat mans verstanden). Kurze Testphase bei 2 wäre ganz gut, muss erstmal bemerken wo man drücken muss.\n2. sehr lange richtige Phasen bei 1 und 3, Konzentration könnte schon abnehmen und besonders beim letzten, hat man keine Lust mehr und wird schneller mal unkonzentriert.\n3. Bei Triangle/Circle braucht man immer seine Zeit um mit Maus (oder auf Mauspad) zum nächsten Knopf zu wechseln. Daher sobald ein zweites Dreieck hintereinander kommt, klickt man schneller als wenn man mit der Maus wechseln muss. Dies hat aber natürlich weniger mit der Erkennungszeit (was für ein Symbol das ist) an sich zu tun, als mit welche Mausart man benutzt oder wie man die Maus strategisch vorher platziert.\n4. Bei mir hat das erste Bild des Kreises/des Triangles langsam geladen. Kann aber auch am Internet hängen, aber sowas verzögert natürlich auch nochmal die Zeit.",1,Graduated High School,1595690932560,small,165,female,right-handed,q,p,q,german,NA,NA,large,images/stimulus_small.jpg,small,NA,Sat Jul 25 2020 17:08:37 GMT+0200 (Mitteleuropäische Sommerzeit),1595689717920,No,20.244,34,experimental_trials_compatible
1762,compatible,NA,416,left,20,"1. zu lange Testphase bei 1 und 3 (nach 3-4 mal hat mans verstanden). Kurze Testphase bei 2 wäre ganz gut, muss erstmal bemerken wo man drücken muss.\n2. sehr lange richtige Phasen bei 1 und 3, Konzentration könnte schon abnehmen und besonders beim letzten, hat man keine Lust mehr und wird schneller mal unkonzentriert.\n3. Bei Triangle/Circle braucht man immer seine Zeit um mit Maus (oder auf Mauspad) zum nächsten Knopf zu wechseln. Daher sobald ein zweites Dreieck hintereinander kommt, klickt man schneller als wenn man mit der Maus wechseln muss. Dies hat aber natürlich weniger mit der Erkennungszeit (was für ein Symbol das ist) an sich zu tun, als mit welche Mausart man benutzt oder wie man die Maus strategisch vorher platziert.\n4. Bei mir hat das erste Bild des Kreises/des Triangles langsam geladen. Kann aber auch am Internet hängen, aber sowas verzögert natürlich auch nochmal die Zeit.",1,Graduated High School,1595690932560,small,165,female,right-handed,q,p,q,german,NA,NA,large,images/stimulus_small.jpg,small,NA,Sat Jul 25 2020 17:08:37 GMT+0200 (Mitteleuropäische Sommerzeit),1595689717920,No,20.244,35,experimental_trials_compatible
1762,compatible,NA,373,right,20,"1. zu lange Testphase bei 1 und 3 (nach 3-4 mal hat mans verstanden). Kurze Testphase bei 2 wäre ganz gut, muss erstmal bemerken wo man drücken muss.\n2. sehr lange richtige Phasen bei 1 und 3, Konzentration könnte schon abnehmen und besonders beim letzten, hat man keine Lust mehr und wird schneller mal unkonzentriert.\n3. Bei Triangle/Circle braucht man immer seine Zeit um mit Maus (oder auf Mauspad) zum nächsten Knopf zu wechseln. Daher sobald ein zweites Dreieck hintereinander kommt, klickt man schneller als wenn man mit der Maus wechseln muss. Dies hat aber natürlich weniger mit der Erkennungszeit (was für ein Symbol das ist) an sich zu tun, als mit welche Mausart man benutzt oder wie man die Maus strategisch vorher platziert.\n4. Bei mir hat das erste Bild des Kreises/des Triangles langsam geladen. Kann aber auch am Internet hängen, aber sowas verzögert natürlich auch nochmal die Zeit.",1,Graduated High School,1595690932560,large,165,female,right-handed,q,p,p,german,NA,NA,large,images/stimulus_large.jpg,small,NA,Sat Jul 25 2020 17:08:37 GMT+0200 (Mitteleuropäische Sommerzeit),1595689717920,No,20.244,36,experimental_trials_compatible
1762,compatible,NA,407,left,20,"1. zu lange Testphase bei 1 und 3 (nach 3-4 mal hat mans verstanden). Kurze Testphase bei 2 wäre ganz gut, muss erstmal bemerken wo man drücken muss.\n2. sehr lange richtige Phasen bei 1 und 3, Konzentration könnte schon abnehmen und besonders beim letzten, hat man keine Lust mehr und wird schneller mal unkonzentriert.\n3. Bei Triangle/Circle braucht man immer seine Zeit um mit Maus (oder auf Mauspad) zum nächsten Knopf zu wechseln. Daher sobald ein zweites Dreieck hintereinander kommt, klickt man schneller als wenn man mit der Maus wechseln muss. Dies hat aber natürlich weniger mit der Erkennungszeit (was für ein Symbol das ist) an sich zu tun, als mit welche Mausart man benutzt oder wie man die Maus strategisch vorher platziert.\n4. Bei mir hat das erste Bild des Kreises/des Triangles langsam geladen. Kann aber auch am Internet hängen, aber sowas verzögert natürlich auch nochmal die Zeit.",1,Graduated High School,1595690932560,small,165,female,right-handed,q,p,q,german,NA,NA,large,images/stimulus_small.jpg,small,NA,Sat Jul 25 2020 17:08:37 GMT+0200 (Mitteleuropäische Sommerzeit),1595689717920,No,20.244,37,experimental_trials_compatible
1762,compatible,NA,369,left,20,"1. zu lange Testphase bei 1 und 3 (nach 3-4 mal hat mans verstanden). Kurze Testphase bei 2 wäre ganz gut, muss erstmal bemerken wo man drücken muss.\n2. sehr lange richtige Phasen bei 1 und 3, Konzentration könnte schon abnehmen und besonders beim letzten, hat man keine Lust mehr und wird schneller mal unkonzentriert.\n3. Bei Triangle/Circle braucht man immer seine Zeit um mit Maus (oder auf Mauspad) zum nächsten Knopf zu wechseln. Daher sobald ein zweites Dreieck hintereinander kommt, klickt man schneller als wenn man mit der Maus wechseln muss. Dies hat aber natürlich weniger mit der Erkennungszeit (was für ein Symbol das ist) an sich zu tun, als mit welche Mausart man benutzt oder wie man die Maus strategisch vorher platziert.\n4. Bei mir hat das erste Bild des Kreises/des Triangles langsam geladen. Kann aber auch am Internet hängen, aber sowas verzögert natürlich auch nochmal die Zeit.",1,Graduated High School,1595690932560,small,165,female,right-handed,q,p,q,german,NA,NA,large,images/stimulus_small.jpg,small,NA,Sat Jul 25 2020 17:08:37 GMT+0200 (Mitteleuropäische Sommerzeit),1595689717920,No,20.244,38,experimental_trials_compatible
1762,compatible,NA,419,right,20,"1. zu lange Testphase bei 1 und 3 (nach 3-4 mal hat mans verstanden). Kurze Testphase bei 2 wäre ganz gut, muss erstmal bemerken wo man drücken muss.\n2. sehr lange richtige Phasen bei 1 und 3, Konzentration könnte schon abnehmen und besonders beim letzten, hat man keine Lust mehr und wird schneller mal unkonzentriert.\n3. Bei Triangle/Circle braucht man immer seine Zeit um mit Maus (oder auf Mauspad) zum nächsten Knopf zu wechseln. Daher sobald ein zweites Dreieck hintereinander kommt, klickt man schneller als wenn man mit der Maus wechseln muss. Dies hat aber natürlich weniger mit der Erkennungszeit (was für ein Symbol das ist) an sich zu tun, als mit welche Mausart man benutzt oder wie man die Maus strategisch vorher platziert.\n4. Bei mir hat das erste Bild des Kreises/des Triangles langsam geladen. Kann aber auch am Internet hängen, aber sowas verzögert natürlich auch nochmal die Zeit.",1,Graduated High School,1595690932560,large,165,female,right-handed,q,p,p,german,NA,NA,large,images/stimulus_large.jpg,small,NA,Sat Jul 25 2020 17:08:37 GMT+0200 (Mitteleuropäische Sommerzeit),1595689717920,No,20.244,39,experimental_trials_compatible
1762,compatible,NA,454,right,20,"1. zu lange Testphase bei 1 und 3 (nach 3-4 mal hat mans verstanden). Kurze Testphase bei 2 wäre ganz gut, muss erstmal bemerken wo man drücken muss.\n2. sehr lange richtige Phasen bei 1 und 3, Konzentration könnte schon abnehmen und besonders beim letzten, hat man keine Lust mehr und wird schneller mal unkonzentriert.\n3. Bei Triangle/Circle braucht man immer seine Zeit um mit Maus (oder auf Mauspad) zum nächsten Knopf zu wechseln. Daher sobald ein zweites Dreieck hintereinander kommt, klickt man schneller als wenn man mit der Maus wechseln muss. Dies hat aber natürlich weniger mit der Erkennungszeit (was für ein Symbol das ist) an sich zu tun, als mit welche Mausart man benutzt oder wie man die Maus strategisch vorher platziert.\n4. Bei mir hat das erste Bild des Kreises/des Triangles langsam geladen. Kann aber auch am Internet hängen, aber sowas verzögert natürlich auch nochmal die Zeit.",1,Graduated High School,1595690932560,large,165,female,right-handed,q,p,p,german,NA,NA,large,images/stimulus_large.jpg,small,NA,Sat Jul 25 2020 17:08:37 GMT+0200 (Mitteleuropäische Sommerzeit),1595689717920,No,20.244,40,experimental_trials_compatible
1762,compatible,NA,394,left,20,"1. zu lange Testphase bei 1 und 3 (nach 3-4 mal hat mans verstanden). Kurze Testphase bei 2 wäre ganz gut, muss erstmal bemerken wo man drücken muss.\n2. sehr lange richtige Phasen bei 1 und 3, Konzentration könnte schon abnehmen und besonders beim letzten, hat man keine Lust mehr und wird schneller mal unkonzentriert.\n3. Bei Triangle/Circle braucht man immer seine Zeit um mit Maus (oder auf Mauspad) zum nächsten Knopf zu wechseln. Daher sobald ein zweites Dreieck hintereinander kommt, klickt man schneller als wenn man mit der Maus wechseln muss. Dies hat aber natürlich weniger mit der Erkennungszeit (was für ein Symbol das ist) an sich zu tun, als mit welche Mausart man benutzt oder wie man die Maus strategisch vorher platziert.\n4. Bei mir hat das erste Bild des Kreises/des Triangles langsam geladen. Kann aber auch am Internet hängen, aber sowas verzögert natürlich auch nochmal die Zeit.",1,Graduated High School,1595690932560,small,165,female,right-handed,q,p,q,german,NA,NA,large,images/stimulus_small.jpg,small,NA,Sat Jul 25 2020 17:08:37 GMT+0200 (Mitteleuropäische Sommerzeit),1595689717920,No,20.244,41,experimental_trials_compatible
1762,compatible,NA,394,right,20,"1. zu lange Testphase bei 1 und 3 (nach 3-4 mal hat mans verstanden). Kurze Testphase bei 2 wäre ganz gut, muss erstmal bemerken wo man drücken muss.\n2. sehr lange richtige Phasen bei 1 und 3, Konzentration könnte schon abnehmen und besonders beim letzten, hat man keine Lust mehr und wird schneller mal unkonzentriert.\n3. Bei Triangle/Circle braucht man immer seine Zeit um mit Maus (oder auf Mauspad) zum nächsten Knopf zu wechseln. Daher sobald ein zweites Dreieck hintereinander kommt, klickt man schneller als wenn man mit der Maus wechseln muss. Dies hat aber natürlich weniger mit der Erkennungszeit (was für ein Symbol das ist) an sich zu tun, als mit welche Mausart man benutzt oder wie man die Maus strategisch vorher platziert.\n4. Bei mir hat das erste Bild des Kreises/des Triangles langsam geladen. Kann aber auch am Internet hängen, aber sowas verzögert natürlich auch nochmal die Zeit.",1,Graduated High School,1595690932560,large,165,female,right-handed,q,p,p,german,NA,NA,large,images/stimulus_large.jpg,small,NA,Sat Jul 25 2020 17:08:37 GMT+0200 (Mitteleuropäische Sommerzeit),1595689717920,No,20.244,42,experimental_trials_compatible
1762,compatible,NA,444,right,20,"1. zu lange Testphase bei 1 und 3 (nach 3-4 mal hat mans verstanden). Kurze Testphase bei 2 wäre ganz gut, muss erstmal bemerken wo man drücken muss.\n2. sehr lange richtige Phasen bei 1 und 3, Konzentration könnte schon abnehmen und besonders beim letzten, hat man keine Lust mehr und wird schneller mal unkonzentriert.\n3. Bei Triangle/Circle braucht man immer seine Zeit um mit Maus (oder auf Mauspad) zum nächsten Knopf zu wechseln. Daher sobald ein zweites Dreieck hintereinander kommt, klickt man schneller als wenn man mit der Maus wechseln muss. Dies hat aber natürlich weniger mit der Erkennungszeit (was für ein Symbol das ist) an sich zu tun, als mit welche Mausart man benutzt oder wie man die Maus strategisch vorher platziert.\n4. Bei mir hat das erste Bild des Kreises/des Triangles langsam geladen. Kann aber auch am Internet hängen, aber sowas verzögert natürlich auch nochmal die Zeit.",1,Graduated High School,1595690932560,large,165,female,right-handed,q,p,p,german,NA,NA,large,images/stimulus_large.jpg,small,NA,Sat Jul 25 2020 17:08:37 GMT+0200 (Mitteleuropäische Sommerzeit),1595689717920,No,20.244,43,experimental_trials_compatible
1762,compatible,NA,384,left,20,"1. zu lange Testphase bei 1 und 3 (nach 3-4 mal hat mans verstanden). Kurze Testphase bei 2 wäre ganz gut, muss erstmal bemerken wo man drücken muss.\n2. sehr lange richtige Phasen bei 1 und 3, Konzentration könnte schon abnehmen und besonders beim letzten, hat man keine Lust mehr und wird schneller mal unkonzentriert.\n3. Bei Triangle/Circle braucht man immer seine Zeit um mit Maus (oder auf Mauspad) zum nächsten Knopf zu wechseln. Daher sobald ein zweites Dreieck hintereinander kommt, klickt man schneller als wenn man mit der Maus wechseln muss. Dies hat aber natürlich weniger mit der Erkennungszeit (was für ein Symbol das ist) an sich zu tun, als mit welche Mausart man benutzt oder wie man die Maus strategisch vorher platziert.\n4. Bei mir hat das erste Bild des Kreises/des Triangles langsam geladen. Kann aber auch am Internet hängen, aber sowas verzögert natürlich auch nochmal die Zeit.",1,Graduated High School,1595690932560,small,165,female,right-handed,q,p,q,german,NA,NA,large,images/stimulus_small.jpg,small,NA,Sat Jul 25 2020 17:08:37 GMT+0200 (Mitteleuropäische Sommerzeit),1595689717920,No,20.244,44,experimental_trials_compatible
1762,compatible,NA,357,right,20,"1. zu lange Testphase bei 1 und 3 (nach 3-4 mal hat mans verstanden). Kurze Testphase bei 2 wäre ganz gut, muss erstmal bemerken wo man drücken muss.\n2. sehr lange richtige Phasen bei 1 und 3, Konzentration könnte schon abnehmen und besonders beim letzten, hat man keine Lust mehr und wird schneller mal unkonzentriert.\n3. Bei Triangle/Circle braucht man immer seine Zeit um mit Maus (oder auf Mauspad) zum nächsten Knopf zu wechseln. Daher sobald ein zweites Dreieck hintereinander kommt, klickt man schneller als wenn man mit der Maus wechseln muss. Dies hat aber natürlich weniger mit der Erkennungszeit (was für ein Symbol das ist) an sich zu tun, als mit welche Mausart man benutzt oder wie man die Maus strategisch vorher platziert.\n4. Bei mir hat das erste Bild des Kreises/des Triangles langsam geladen. Kann aber auch am Internet hängen, aber sowas verzögert natürlich auch nochmal die Zeit.",1,Graduated High School,1595690932560,large,165,female,right-handed,q,p,p,german,NA,NA,large,images/stimulus_large.jpg,small,NA,Sat Jul 25 2020 17:08:37 GMT+0200 (Mitteleuropäische Sommerzeit),1595689717920,No,20.244,45,experimental_trials_compatible
1762,compatible,NA,487,right,20,"1. zu lange Testphase bei 1 und 3 (nach 3-4 mal hat mans verstanden). Kurze Testphase bei 2 wäre ganz gut, muss erstmal bemerken wo man drücken muss.\n2. sehr lange richtige Phasen bei 1 und 3, Konzentration könnte schon abnehmen und besonders beim letzten, hat man keine Lust mehr und wird schneller mal unkonzentriert.\n3. Bei Triangle/Circle braucht man immer seine Zeit um mit Maus (oder auf Mauspad) zum nächsten Knopf zu wechseln. Daher sobald ein zweites Dreieck hintereinander kommt, klickt man schneller als wenn man mit der Maus wechseln muss. Dies hat aber natürlich weniger mit der Erkennungszeit (was für ein Symbol das ist) an sich zu tun, als mit welche Mausart man benutzt oder wie man die Maus strategisch vorher platziert.\n4. Bei mir hat das erste Bild des Kreises/des Triangles langsam geladen. Kann aber auch am Internet hängen, aber sowas verzögert natürlich auch nochmal die Zeit.",1,Graduated High School,1595690932560,large,165,female,right-handed,q,p,p,german,NA,NA,large,images/stimulus_large.jpg,small,NA,Sat Jul 25 2020 17:08:37 GMT+0200 (Mitteleuropäische Sommerzeit),1595689717920,No,20.244,46,experimental_trials_compatible
1762,compatible,NA,442,right,20,"1. zu lange Testphase bei 1 und 3 (nach 3-4 mal hat mans verstanden). Kurze Testphase bei 2 wäre ganz gut, muss erstmal bemerken wo man drücken muss.\n2. sehr lange richtige Phasen bei 1 und 3, Konzentration könnte schon abnehmen und besonders beim letzten, hat man keine Lust mehr und wird schneller mal unkonzentriert.\n3. Bei Triangle/Circle braucht man immer seine Zeit um mit Maus (oder auf Mauspad) zum nächsten Knopf zu wechseln. Daher sobald ein zweites Dreieck hintereinander kommt, klickt man schneller als wenn man mit der Maus wechseln muss. Dies hat aber natürlich weniger mit der Erkennungszeit (was für ein Symbol das ist) an sich zu tun, als mit welche Mausart man benutzt oder wie man die Maus strategisch vorher platziert.\n4. Bei mir hat das erste Bild des Kreises/des Triangles langsam geladen. Kann aber auch am Internet hängen, aber sowas verzögert natürlich auch nochmal die Zeit.",1,Graduated High School,1595690932560,large,165,female,right-handed,q,p,p,german,NA,NA,large,images/stimulus_large.jpg,small,NA,Sat Jul 25 2020 17:08:37 GMT+0200 (Mitteleuropäische Sommerzeit),1595689717920,No,20.244,47,experimental_trials_compatible
1762,compatible,NA,366,left,20,"1. zu lange Testphase bei 1 und 3 (nach 3-4 mal hat mans verstanden). Kurze Testphase bei 2 wäre ganz gut, muss erstmal bemerken wo man drücken muss.\n2. sehr lange richtige Phasen bei 1 und 3, Konzentration könnte schon abnehmen und besonders beim letzten, hat man keine Lust mehr und wird schneller mal unkonzentriert.\n3. Bei Triangle/Circle braucht man immer seine Zeit um mit Maus (oder auf Mauspad) zum nächsten Knopf zu wechseln. Daher sobald ein zweites Dreieck hintereinander kommt, klickt man schneller als wenn man mit der Maus wechseln muss. Dies hat aber natürlich weniger mit der Erkennungszeit (was für ein Symbol das ist) an sich zu tun, als mit welche Mausart man benutzt oder wie man die Maus strategisch vorher platziert.\n4. Bei mir hat das erste Bild des Kreises/des Triangles langsam geladen. Kann aber auch am Internet hängen, aber sowas verzögert natürlich auch nochmal die Zeit.",1,Graduated High School,1595690932560,small,165,female,right-handed,q,p,q,german,NA,NA,large,images/stimulus_small.jpg,small,NA,Sat Jul 25 2020 17:08:37 GMT+0200 (Mitteleuropäische Sommerzeit),1595689717920,No,20.244,48,experimental_trials_compatible
1762,compatible,NA,433,left,20,"1. zu lange Testphase bei 1 und 3 (nach 3-4 mal hat mans verstanden). Kurze Testphase bei 2 wäre ganz gut, muss erstmal bemerken wo man drücken muss.\n2. sehr lange richtige Phasen bei 1 und 3, Konzentration könnte schon abnehmen und besonders beim letzten, hat man keine Lust mehr und wird schneller mal unkonzentriert.\n3. Bei Triangle/Circle braucht man immer seine Zeit um mit Maus (oder auf Mauspad) zum nächsten Knopf zu wechseln. Daher sobald ein zweites Dreieck hintereinander kommt, klickt man schneller als wenn man mit der Maus wechseln muss. Dies hat aber natürlich weniger mit der Erkennungszeit (was für ein Symbol das ist) an sich zu tun, als mit welche Mausart man benutzt oder wie man die Maus strategisch vorher platziert.\n4. Bei mir hat das erste Bild des Kreises/des Triangles langsam geladen. Kann aber auch am Internet hängen, aber sowas verzögert natürlich auch nochmal die Zeit.",1,Graduated High School,1595690932560,small,165,female,right-handed,q,p,q,german,NA,NA,large,images/stimulus_small.jpg,small,NA,Sat Jul 25 2020 17:08:37 GMT+0200 (Mitteleuropäische Sommerzeit),1595689717920,No,20.244,49,experimental_trials_compatible
1762,compatible,NA,473,left,20,"1. zu lange Testphase bei 1 und 3 (nach 3-4 mal hat mans verstanden). Kurze Testphase bei 2 wäre ganz gut, muss erstmal bemerken wo man drücken muss.\n2. sehr lange richtige Phasen bei 1 und 3, Konzentration könnte schon abnehmen und besonders beim letzten, hat man keine Lust mehr und wird schneller mal unkonzentriert.\n3. Bei Triangle/Circle braucht man immer seine Zeit um mit Maus (oder auf Mauspad) zum nächsten Knopf zu wechseln. Daher sobald ein zweites Dreieck hintereinander kommt, klickt man schneller als wenn man mit der Maus wechseln muss. Dies hat aber natürlich weniger mit der Erkennungszeit (was für ein Symbol das ist) an sich zu tun, als mit welche Mausart man benutzt oder wie man die Maus strategisch vorher platziert.\n4. Bei mir hat das erste Bild des Kreises/des Triangles langsam geladen. Kann aber auch am Internet hängen, aber sowas verzögert natürlich auch nochmal die Zeit.",1,Graduated High School,1595690932560,small,165,female,right-handed,q,p,q,german,NA,NA,large,images/stimulus_small.jpg,small,NA,Sat Jul 25 2020 17:08:37 GMT+0200 (Mitteleuropäische Sommerzeit),1595689717920,No,20.244,50,experimental_trials_compatible
1762,compatible,NA,488,left,20,"1. zu lange Testphase bei 1 und 3 (nach 3-4 mal hat mans verstanden). Kurze Testphase bei 2 wäre ganz gut, muss erstmal bemerken wo man drücken muss.\n2. sehr lange richtige Phasen bei 1 und 3, Konzentration könnte schon abnehmen und besonders beim letzten, hat man keine Lust mehr und wird schneller mal unkonzentriert.\n3. Bei Triangle/Circle braucht man immer seine Zeit um mit Maus (oder auf Mauspad) zum nächsten Knopf zu wechseln. Daher sobald ein zweites Dreieck hintereinander kommt, klickt man schneller als wenn man mit der Maus wechseln muss. Dies hat aber natürlich weniger mit der Erkennungszeit (was für ein Symbol das ist) an sich zu tun, als mit welche Mausart man benutzt oder wie man die Maus strategisch vorher platziert.\n4. Bei mir hat das erste Bild des Kreises/des Triangles langsam geladen. Kann aber auch am Internet hängen, aber sowas verzögert natürlich auch nochmal die Zeit.",1,Graduated High School,1595690932560,small,165,female,right-handed,q,p,q,german,NA,NA,large,images/stimulus_small.jpg,small,NA,Sat Jul 25 2020 17:08:37 GMT+0200 (Mitteleuropäische Sommerzeit),1595689717920,No,20.244,51,experimental_trials_compatible
1762,compatible,NA,467,left,20,"1. zu lange Testphase bei 1 und 3 (nach 3-4 mal hat mans verstanden). Kurze Testphase bei 2 wäre ganz gut, muss erstmal bemerken wo man drücken muss.\n2. sehr lange richtige Phasen bei 1 und 3, Konzentration könnte schon abnehmen und besonders beim letzten, hat man keine Lust mehr und wird schneller mal unkonzentriert.\n3. Bei Triangle/Circle braucht man immer seine Zeit um mit Maus (oder auf Mauspad) zum nächsten Knopf zu wechseln. Daher sobald ein zweites Dreieck hintereinander kommt, klickt man schneller als wenn man mit der Maus wechseln muss. Dies hat aber natürlich weniger mit der Erkennungszeit (was für ein Symbol das ist) an sich zu tun, als mit welche Mausart man benutzt oder wie man die Maus strategisch vorher platziert.\n4. Bei mir hat das erste Bild des Kreises/des Triangles langsam geladen. Kann aber auch am Internet hängen, aber sowas verzögert natürlich auch nochmal die Zeit.",1,Graduated High School,1595690932560,small,165,female,right-handed,q,p,q,german,NA,NA,large,images/stimulus_small.jpg,small,NA,Sat Jul 25 2020 17:08:37 GMT+0200 (Mitteleuropäische Sommerzeit),1595689717920,No,20.244,52,experimental_trials_compatible
1762,compatible,NA,386,left,20,"1. zu lange Testphase bei 1 und 3 (nach 3-4 mal hat mans verstanden). Kurze Testphase bei 2 wäre ganz gut, muss erstmal bemerken wo man drücken muss.\n2. sehr lange richtige Phasen bei 1 und 3, Konzentration könnte schon abnehmen und besonders beim letzten, hat man keine Lust mehr und wird schneller mal unkonzentriert.\n3. Bei Triangle/Circle braucht man immer seine Zeit um mit Maus (oder auf Mauspad) zum nächsten Knopf zu wechseln. Daher sobald ein zweites Dreieck hintereinander kommt, klickt man schneller als wenn man mit der Maus wechseln muss. Dies hat aber natürlich weniger mit der Erkennungszeit (was für ein Symbol das ist) an sich zu tun, als mit welche Mausart man benutzt oder wie man die Maus strategisch vorher platziert.\n4. Bei mir hat das erste Bild des Kreises/des Triangles langsam geladen. Kann aber auch am Internet hängen, aber sowas verzögert natürlich auch nochmal die Zeit.",1,Graduated High School,1595690932560,small,165,female,right-handed,q,p,q,german,NA,NA,large,images/stimulus_small.jpg,small,NA,Sat Jul 25 2020 17:08:37 GMT+0200 (Mitteleuropäische Sommerzeit),1595689717920,No,20.244,53,experimental_trials_compatible
1762,compatible,NA,424,right,20,"1. zu lange Testphase bei 1 und 3 (nach 3-4 mal hat mans verstanden). Kurze Testphase bei 2 wäre ganz gut, muss erstmal bemerken wo man drücken muss.\n2. sehr lange richtige Phasen bei 1 und 3, Konzentration könnte schon abnehmen und besonders beim letzten, hat man keine Lust mehr und wird schneller mal unkonzentriert.\n3. Bei Triangle/Circle braucht man immer seine Zeit um mit Maus (oder auf Mauspad) zum nächsten Knopf zu wechseln. Daher sobald ein zweites Dreieck hintereinander kommt, klickt man schneller als wenn man mit der Maus wechseln muss. Dies hat aber natürlich weniger mit der Erkennungszeit (was für ein Symbol das ist) an sich zu tun, als mit welche Mausart man benutzt oder wie man die Maus strategisch vorher platziert.\n4. Bei mir hat das erste Bild des Kreises/des Triangles langsam geladen. Kann aber auch am Internet hängen, aber sowas verzögert natürlich auch nochmal die Zeit.",1,Graduated High School,1595690932560,large,165,female,right-handed,q,p,p,german,NA,NA,large,images/stimulus_large.jpg,small,NA,Sat Jul 25 2020 17:08:37 GMT+0200 (Mitteleuropäische Sommerzeit),1595689717920,No,20.244,54,experimental_trials_compatible
1762,compatible,NA,459,right,20,"1. zu lange Testphase bei 1 und 3 (nach 3-4 mal hat mans verstanden). Kurze Testphase bei 2 wäre ganz gut, muss erstmal bemerken wo man drücken muss.\n2. sehr lange richtige Phasen bei 1 und 3, Konzentration könnte schon abnehmen und besonders beim letzten, hat man keine Lust mehr und wird schneller mal unkonzentriert.\n3. Bei Triangle/Circle braucht man immer seine Zeit um mit Maus (oder auf Mauspad) zum nächsten Knopf zu wechseln. Daher sobald ein zweites Dreieck hintereinander kommt, klickt man schneller als wenn man mit der Maus wechseln muss. Dies hat aber natürlich weniger mit der Erkennungszeit (was für ein Symbol das ist) an sich zu tun, als mit welche Mausart man benutzt oder wie man die Maus strategisch vorher platziert.\n4. Bei mir hat das erste Bild des Kreises/des Triangles langsam geladen. Kann aber auch am Internet hängen, aber sowas verzögert natürlich auch nochmal die Zeit.",1,Graduated High School,1595690932560,large,165,female,right-handed,q,p,p,german,NA,NA,large,images/stimulus_large.jpg,small,NA,Sat Jul 25 2020 17:08:37 GMT+0200 (Mitteleuropäische Sommerzeit),1595689717920,No,20.244,55,experimental_trials_compatible
1762,compatible,NA,354,left,20,"1. zu lange Testphase bei 1 und 3 (nach 3-4 mal hat mans verstanden). Kurze Testphase bei 2 wäre ganz gut, muss erstmal bemerken wo man drücken muss.\n2. sehr lange richtige Phasen bei 1 und 3, Konzentration könnte schon abnehmen und besonders beim letzten, hat man keine Lust mehr und wird schneller mal unkonzentriert.\n3. Bei Triangle/Circle braucht man immer seine Zeit um mit Maus (oder auf Mauspad) zum nächsten Knopf zu wechseln. Daher sobald ein zweites Dreieck hintereinander kommt, klickt man schneller als wenn man mit der Maus wechseln muss. Dies hat aber natürlich weniger mit der Erkennungszeit (was für ein Symbol das ist) an sich zu tun, als mit welche Mausart man benutzt oder wie man die Maus strategisch vorher platziert.\n4. Bei mir hat das erste Bild des Kreises/des Triangles langsam geladen. Kann aber auch am Internet hängen, aber sowas verzögert natürlich auch nochmal die Zeit.",1,Graduated High School,1595690932560,small,165,female,right-handed,q,p,q,german,NA,NA,large,images/stimulus_small.jpg,small,NA,Sat Jul 25 2020 17:08:37 GMT+0200 (Mitteleuropäische Sommerzeit),1595689717920,No,20.244,56,experimental_trials_compatible
1762,compatible,NA,364,right,20,"1. zu lange Testphase bei 1 und 3 (nach 3-4 mal hat mans verstanden). Kurze Testphase bei 2 wäre ganz gut, muss erstmal bemerken wo man drücken muss.\n2. sehr lange richtige Phasen bei 1 und 3, Konzentration könnte schon abnehmen und besonders beim letzten, hat man keine Lust mehr und wird schneller mal unkonzentriert.\n3. Bei Triangle/Circle braucht man immer seine Zeit um mit Maus (oder auf Mauspad) zum nächsten Knopf zu wechseln. Daher sobald ein zweites Dreieck hintereinander kommt, klickt man schneller als wenn man mit der Maus wechseln muss. Dies hat aber natürlich weniger mit der Erkennungszeit (was für ein Symbol das ist) an sich zu tun, als mit welche Mausart man benutzt oder wie man die Maus strategisch vorher platziert.\n4. Bei mir hat das erste Bild des Kreises/des Triangles langsam geladen. Kann aber auch am Internet hängen, aber sowas verzögert natürlich auch nochmal die Zeit.",1,Graduated High School,1595690932560,large,165,female,right-handed,q,p,p,german,NA,NA,large,images/stimulus_large.jpg,small,NA,Sat Jul 25 2020 17:08:37 GMT+0200 (Mitteleuropäische Sommerzeit),1595689717920,No,20.244,57,experimental_trials_compatible
1762,compatible,NA,446,left,20,"1. zu lange Testphase bei 1 und 3 (nach 3-4 mal hat mans verstanden). Kurze Testphase bei 2 wäre ganz gut, muss erstmal bemerken wo man drücken muss.\n2. sehr lange richtige Phasen bei 1 und 3, Konzentration könnte schon abnehmen und besonders beim letzten, hat man keine Lust mehr und wird schneller mal unkonzentriert.\n3. Bei Triangle/Circle braucht man immer seine Zeit um mit Maus (oder auf Mauspad) zum nächsten Knopf zu wechseln. Daher sobald ein zweites Dreieck hintereinander kommt, klickt man schneller als wenn man mit der Maus wechseln muss. Dies hat aber natürlich weniger mit der Erkennungszeit (was für ein Symbol das ist) an sich zu tun, als mit welche Mausart man benutzt oder wie man die Maus strategisch vorher platziert.\n4. Bei mir hat das erste Bild des Kreises/des Triangles langsam geladen. Kann aber auch am Internet hängen, aber sowas verzögert natürlich auch nochmal die Zeit.",1,Graduated High School,1595690932560,small,165,female,right-handed,q,p,q,german,NA,NA,large,images/stimulus_small.jpg,small,NA,Sat Jul 25 2020 17:08:37 GMT+0200 (Mitteleuropäische Sommerzeit),1595689717920,No,20.244,58,experimental_trials_compatible
1762,compatible,NA,448,left,20,"1. zu lange Testphase bei 1 und 3 (nach 3-4 mal hat mans verstanden). Kurze Testphase bei 2 wäre ganz gut, muss erstmal bemerken wo man drücken muss.\n2. sehr lange richtige Phasen bei 1 und 3, Konzentration könnte schon abnehmen und besonders beim letzten, hat man keine Lust mehr und wird schneller mal unkonzentriert.\n3. Bei Triangle/Circle braucht man immer seine Zeit um mit Maus (oder auf Mauspad) zum nächsten Knopf zu wechseln. Daher sobald ein zweites Dreieck hintereinander kommt, klickt man schneller als wenn man mit der Maus wechseln muss. Dies hat aber natürlich weniger mit der Erkennungszeit (was für ein Symbol das ist) an sich zu tun, als mit welche Mausart man benutzt oder wie man die Maus strategisch vorher platziert.\n4. Bei mir hat das erste Bild des Kreises/des Triangles langsam geladen. Kann aber auch am Internet hängen, aber sowas verzögert natürlich auch nochmal die Zeit.",1,Graduated High School,1595690932560,small,165,female,right-handed,q,p,q,german,NA,NA,large,images/stimulus_small.jpg,small,NA,Sat Jul 25 2020 17:08:37 GMT+0200 (Mitteleuropäische Sommerzeit),1595689717920,No,20.244,59,experimental_trials_compatible
1762,compatible,NA,423,right,20,"1. zu lange Testphase bei 1 und 3 (nach 3-4 mal hat mans verstanden). Kurze Testphase bei 2 wäre ganz gut, muss erstmal bemerken wo man drücken muss.\n2. sehr lange richtige Phasen bei 1 und 3, Konzentration könnte schon abnehmen und besonders beim letzten, hat man keine Lust mehr und wird schneller mal unkonzentriert.\n3. Bei Triangle/Circle braucht man immer seine Zeit um mit Maus (oder auf Mauspad) zum nächsten Knopf zu wechseln. Daher sobald ein zweites Dreieck hintereinander kommt, klickt man schneller als wenn man mit der Maus wechseln muss. Dies hat aber natürlich weniger mit der Erkennungszeit (was für ein Symbol das ist) an sich zu tun, als mit welche Mausart man benutzt oder wie man die Maus strategisch vorher platziert.\n4. Bei mir hat das erste Bild des Kreises/des Triangles langsam geladen. Kann aber auch am Internet hängen, aber sowas verzögert natürlich auch nochmal die Zeit.",1,Graduated High School,1595690932560,large,165,female,right-handed,q,p,p,german,NA,NA,large,images/stimulus_large.jpg,small,NA,Sat Jul 25 2020 17:08:37 GMT+0200 (Mitteleuropäische Sommerzeit),1595689717920,No,20.244,60,experimental_trials_compatible
1762,NA,,2675,triangle,20,"1. zu lange Testphase bei 1 und 3 (nach 3-4 mal hat mans verstanden). Kurze Testphase bei 2 wäre ganz gut, muss erstmal bemerken wo man drücken muss.\n2. sehr lange richtige Phasen bei 1 und 3, Konzentration könnte schon abnehmen und besonders beim letzten, hat man keine Lust mehr und wird schneller mal unkonzentriert.\n3. Bei Triangle/Circle braucht man immer seine Zeit um mit Maus (oder auf Mauspad) zum nächsten Knopf zu wechseln. Daher sobald ein zweites Dreieck hintereinander kommt, klickt man schneller als wenn man mit der Maus wechseln muss. Dies hat aber natürlich weniger mit der Erkennungszeit (was für ein Symbol das ist) an sich zu tun, als mit welche Mausart man benutzt oder wie man die Maus strategisch vorher platziert.\n4. Bei mir hat das erste Bild des Kreises/des Triangles langsam geladen. Kann aber auch am Internet hängen, aber sowas verzögert natürlich auch nochmal die Zeit.",1,Graduated High School,1595690932560,triangle,165,female,right-handed,NA,NA,NA,german,circle,triangle,NA,images/triangle.jpg,NA,,Sat Jul 25 2020 17:08:37 GMT+0200 (Mitteleuropäische Sommerzeit),1595689717920,No,20.244,1,test
1762,NA,,1111,triangle,20,"1. zu lange Testphase bei 1 und 3 (nach 3-4 mal hat mans verstanden). Kurze Testphase bei 2 wäre ganz gut, muss erstmal bemerken wo man drücken muss.\n2. sehr lange richtige Phasen bei 1 und 3, Konzentration könnte schon abnehmen und besonders beim letzten, hat man keine Lust mehr und wird schneller mal unkonzentriert.\n3. Bei Triangle/Circle braucht man immer seine Zeit um mit Maus (oder auf Mauspad) zum nächsten Knopf zu wechseln. Daher sobald ein zweites Dreieck hintereinander kommt, klickt man schneller als wenn man mit der Maus wechseln muss. Dies hat aber natürlich weniger mit der Erkennungszeit (was für ein Symbol das ist) an sich zu tun, als mit welche Mausart man benutzt oder wie man die Maus strategisch vorher platziert.\n4. Bei mir hat das erste Bild des Kreises/des Triangles langsam geladen. Kann aber auch am Internet hängen, aber sowas verzögert natürlich auch nochmal die Zeit.",1,Graduated High School,1595690932560,triangle,165,female,right-handed,NA,NA,NA,german,circle,triangle,NA,images/triangle.jpg,NA,,Sat Jul 25 2020 17:08:37 GMT+0200 (Mitteleuropäische Sommerzeit),1595689717920,No,20.244,2,test
1762,NA,,1946,circle,20,"1. zu lange Testphase bei 1 und 3 (nach 3-4 mal hat mans verstanden). Kurze Testphase bei 2 wäre ganz gut, muss erstmal bemerken wo man drücken muss.\n2. sehr lange richtige Phasen bei 1 und 3, Konzentration könnte schon abnehmen und besonders beim letzten, hat man keine Lust mehr und wird schneller mal unkonzentriert.\n3. Bei Triangle/Circle braucht man immer seine Zeit um mit Maus (oder auf Mauspad) zum nächsten Knopf zu wechseln. Daher sobald ein zweites Dreieck hintereinander kommt, klickt man schneller als wenn man mit der Maus wechseln muss. Dies hat aber natürlich weniger mit der Erkennungszeit (was für ein Symbol das ist) an sich zu tun, als mit welche Mausart man benutzt oder wie man die Maus strategisch vorher platziert.\n4. Bei mir hat das erste Bild des Kreises/des Triangles langsam geladen. Kann aber auch am Internet hängen, aber sowas verzögert natürlich auch nochmal die Zeit.",1,Graduated High School,1595690932560,circle,165,female,right-handed,NA,NA,NA,german,circle,triangle,NA,images/circle.jpg,NA,,Sat Jul 25 2020 17:08:37 GMT+0200 (Mitteleuropäische Sommerzeit),1595689717920,No,20.244,3,test
1762,NA,,911,circle,20,"1. zu lange Testphase bei 1 und 3 (nach 3-4 mal hat mans verstanden). Kurze Testphase bei 2 wäre ganz gut, muss erstmal bemerken wo man drücken muss.\n2. sehr lange richtige Phasen bei 1 und 3, Konzentration könnte schon abnehmen und besonders beim letzten, hat man keine Lust mehr und wird schneller mal unkonzentriert.\n3. Bei Triangle/Circle braucht man immer seine Zeit um mit Maus (oder auf Mauspad) zum nächsten Knopf zu wechseln. Daher sobald ein zweites Dreieck hintereinander kommt, klickt man schneller als wenn man mit der Maus wechseln muss. Dies hat aber natürlich weniger mit der Erkennungszeit (was für ein Symbol das ist) an sich zu tun, als mit welche Mausart man benutzt oder wie man die Maus strategisch vorher platziert.\n4. Bei mir hat das erste Bild des Kreises/des Triangles langsam geladen. Kann aber auch am Internet hängen, aber sowas verzögert natürlich auch nochmal die Zeit.",1,Graduated High School,1595690932560,circle,165,female,right-handed,NA,NA,NA,german,circle,triangle,NA,images/circle.jpg,NA,,Sat Jul 25 2020 17:08:37 GMT+0200 (Mitteleuropäische Sommerzeit),1595689717920,No,20.244,4,test
1762,NA,,1306,triangle,20,"1. zu lange Testphase bei 1 und 3 (nach 3-4 mal hat mans verstanden). Kurze Testphase bei 2 wäre ganz gut, muss erstmal bemerken wo man drücken muss.\n2. sehr lange richtige Phasen bei 1 und 3, Konzentration könnte schon abnehmen und besonders beim letzten, hat man keine Lust mehr und wird schneller mal unkonzentriert.\n3. Bei Triangle/Circle braucht man immer seine Zeit um mit Maus (oder auf Mauspad) zum nächsten Knopf zu wechseln. Daher sobald ein zweites Dreieck hintereinander kommt, klickt man schneller als wenn man mit der Maus wechseln muss. Dies hat aber natürlich weniger mit der Erkennungszeit (was für ein Symbol das ist) an sich zu tun, als mit welche Mausart man benutzt oder wie man die Maus strategisch vorher platziert.\n4. Bei mir hat das erste Bild des Kreises/des Triangles langsam geladen. Kann aber auch am Internet hängen, aber sowas verzögert natürlich auch nochmal die Zeit.",1,Graduated High School,1595690932560,triangle,165,female,right-handed,NA,NA,NA,german,circle,triangle,NA,images/triangle.jpg,NA,,Sat Jul 25 2020 17:08:37 GMT+0200 (Mitteleuropäische Sommerzeit),1595689717920,No,20.244,5,test
1762,NA,,1247,circle,20,"1. zu lange Testphase bei 1 und 3 (nach 3-4 mal hat mans verstanden). Kurze Testphase bei 2 wäre ganz gut, muss erstmal bemerken wo man drücken muss.\n2. sehr lange richtige Phasen bei 1 und 3, Konzentration könnte schon abnehmen und besonders beim letzten, hat man keine Lust mehr und wird schneller mal unkonzentriert.\n3. Bei Triangle/Circle braucht man immer seine Zeit um mit Maus (oder auf Mauspad) zum nächsten Knopf zu wechseln. Daher sobald ein zweites Dreieck hintereinander kommt, klickt man schneller als wenn man mit der Maus wechseln muss. Dies hat aber natürlich weniger mit der Erkennungszeit (was für ein Symbol das ist) an sich zu tun, als mit welche Mausart man benutzt oder wie man die Maus strategisch vorher platziert.\n4. Bei mir hat das erste Bild des Kreises/des Triangles langsam geladen. Kann aber auch am Internet hängen, aber sowas verzögert natürlich auch nochmal die Zeit.",1,Graduated High School,1595690932560,circle,165,female,right-handed,NA,NA,NA,german,circle,triangle,NA,images/circle.jpg,NA,,Sat Jul 25 2020 17:08:37 GMT+0200 (Mitteleuropäische Sommerzeit),1595689717920,No,20.244,6,test
1762,NA,,1124,circle,20,"1. zu lange Testphase bei 1 und 3 (nach 3-4 mal hat mans verstanden). Kurze Testphase bei 2 wäre ganz gut, muss erstmal bemerken wo man drücken muss.\n2. sehr lange richtige Phasen bei 1 und 3, Konzentration könnte schon abnehmen und besonders beim letzten, hat man keine Lust mehr und wird schneller mal unkonzentriert.\n3. Bei Triangle/Circle braucht man immer seine Zeit um mit Maus (oder auf Mauspad) zum nächsten Knopf zu wechseln. Daher sobald ein zweites Dreieck hintereinander kommt, klickt man schneller als wenn man mit der Maus wechseln muss. Dies hat aber natürlich weniger mit der Erkennungszeit (was für ein Symbol das ist) an sich zu tun, als mit welche Mausart man benutzt oder wie man die Maus strategisch vorher platziert.\n4. Bei mir hat das erste Bild des Kreises/des Triangles langsam geladen. Kann aber auch am Internet hängen, aber sowas verzögert natürlich auch nochmal die Zeit.",1,Graduated High School,1595690932560,circle,165,female,right-handed,NA,NA,NA,german,circle,triangle,NA,images/circle.jpg,NA,,Sat Jul 25 2020 17:08:37 GMT+0200 (Mitteleuropäische Sommerzeit),1595689717920,No,20.244,7,test
1762,NA,,1070,circle,20,"1. zu lange Testphase bei 1 und 3 (nach 3-4 mal hat mans verstanden). Kurze Testphase bei 2 wäre ganz gut, muss erstmal bemerken wo man drücken muss.\n2. sehr lange richtige Phasen bei 1 und 3, Konzentration könnte schon abnehmen und besonders beim letzten, hat man keine Lust mehr und wird schneller mal unkonzentriert.\n3. Bei Triangle/Circle braucht man immer seine Zeit um mit Maus (oder auf Mauspad) zum nächsten Knopf zu wechseln. Daher sobald ein zweites Dreieck hintereinander kommt, klickt man schneller als wenn man mit der Maus wechseln muss. Dies hat aber natürlich weniger mit der Erkennungszeit (was für ein Symbol das ist) an sich zu tun, als mit welche Mausart man benutzt oder wie man die Maus strategisch vorher platziert.\n4. Bei mir hat das erste Bild des Kreises/des Triangles langsam geladen. Kann aber auch am Internet hängen, aber sowas verzögert natürlich auch nochmal die Zeit.",1,Graduated High School,1595690932560,circle,165,female,right-handed,NA,NA,NA,german,circle,triangle,NA,images/circle.jpg,NA,,Sat Jul 25 2020 17:08:37 GMT+0200 (Mitteleuropäische Sommerzeit),1595689717920,No,20.244,8,test
1762,NA,,1263,triangle,20,"1. zu lange Testphase bei 1 und 3 (nach 3-4 mal hat mans verstanden). Kurze Testphase bei 2 wäre ganz gut, muss erstmal bemerken wo man drücken muss.\n2. sehr lange richtige Phasen bei 1 und 3, Konzentration könnte schon abnehmen und besonders beim letzten, hat man keine Lust mehr und wird schneller mal unkonzentriert.\n3. Bei Triangle/Circle braucht man immer seine Zeit um mit Maus (oder auf Mauspad) zum nächsten Knopf zu wechseln. Daher sobald ein zweites Dreieck hintereinander kommt, klickt man schneller als wenn man mit der Maus wechseln muss. Dies hat aber natürlich weniger mit der Erkennungszeit (was für ein Symbol das ist) an sich zu tun, als mit welche Mausart man benutzt oder wie man die Maus strategisch vorher platziert.\n4. Bei mir hat das erste Bild des Kreises/des Triangles langsam geladen. Kann aber auch am Internet hängen, aber sowas verzögert natürlich auch nochmal die Zeit.",1,Graduated High School,1595690932560,triangle,165,female,right-handed,NA,NA,NA,german,circle,triangle,NA,images/triangle.jpg,NA,,Sat Jul 25 2020 17:08:37 GMT+0200 (Mitteleuropäische Sommerzeit),1595689717920,No,20.244,9,test
1762,NA,,1291,circle,20,"1. zu lange Testphase bei 1 und 3 (nach 3-4 mal hat mans verstanden). Kurze Testphase bei 2 wäre ganz gut, muss erstmal bemerken wo man drücken muss.\n2. sehr lange richtige Phasen bei 1 und 3, Konzentration könnte schon abnehmen und besonders beim letzten, hat man keine Lust mehr und wird schneller mal unkonzentriert.\n3. Bei Triangle/Circle braucht man immer seine Zeit um mit Maus (oder auf Mauspad) zum nächsten Knopf zu wechseln. Daher sobald ein zweites Dreieck hintereinander kommt, klickt man schneller als wenn man mit der Maus wechseln muss. Dies hat aber natürlich weniger mit der Erkennungszeit (was für ein Symbol das ist) an sich zu tun, als mit welche Mausart man benutzt oder wie man die Maus strategisch vorher platziert.\n4. Bei mir hat das erste Bild des Kreises/des Triangles langsam geladen. Kann aber auch am Internet hängen, aber sowas verzögert natürlich auch nochmal die Zeit.",1,Graduated High School,1595690932560,circle,165,female,right-handed,NA,NA,NA,german,circle,triangle,NA,images/circle.jpg,NA,,Sat Jul 25 2020 17:08:37 GMT+0200 (Mitteleuropäische Sommerzeit),1595689717920,No,20.244,10,test
1762,NA,,735,circle,20,"1. zu lange Testphase bei 1 und 3 (nach 3-4 mal hat mans verstanden). Kurze Testphase bei 2 wäre ganz gut, muss erstmal bemerken wo man drücken muss.\n2. sehr lange richtige Phasen bei 1 und 3, Konzentration könnte schon abnehmen und besonders beim letzten, hat man keine Lust mehr und wird schneller mal unkonzentriert.\n3. Bei Triangle/Circle braucht man immer seine Zeit um mit Maus (oder auf Mauspad) zum nächsten Knopf zu wechseln. Daher sobald ein zweites Dreieck hintereinander kommt, klickt man schneller als wenn man mit der Maus wechseln muss. Dies hat aber natürlich weniger mit der Erkennungszeit (was für ein Symbol das ist) an sich zu tun, als mit welche Mausart man benutzt oder wie man die Maus strategisch vorher platziert.\n4. Bei mir hat das erste Bild des Kreises/des Triangles langsam geladen. Kann aber auch am Internet hängen, aber sowas verzögert natürlich auch nochmal die Zeit.",1,Graduated High School,1595690932560,circle,165,female,right-handed,NA,NA,NA,german,circle,triangle,NA,images/circle.jpg,NA,,Sat Jul 25 2020 17:08:37 GMT+0200 (Mitteleuropäische Sommerzeit),1595689717920,No,20.244,11,test
1762,NA,,1234,triangle,20,"1. zu lange Testphase bei 1 und 3 (nach 3-4 mal hat mans verstanden). Kurze Testphase bei 2 wäre ganz gut, muss erstmal bemerken wo man drücken muss.\n2. sehr lange richtige Phasen bei 1 und 3, Konzentration könnte schon abnehmen und besonders beim letzten, hat man keine Lust mehr und wird schneller mal unkonzentriert.\n3. Bei Triangle/Circle braucht man immer seine Zeit um mit Maus (oder auf Mauspad) zum nächsten Knopf zu wechseln. Daher sobald ein zweites Dreieck hintereinander kommt, klickt man schneller als wenn man mit der Maus wechseln muss. Dies hat aber natürlich weniger mit der Erkennungszeit (was für ein Symbol das ist) an sich zu tun, als mit welche Mausart man benutzt oder wie man die Maus strategisch vorher platziert.\n4. Bei mir hat das erste Bild des Kreises/des Triangles langsam geladen. Kann aber auch am Internet hängen, aber sowas verzögert natürlich auch nochmal die Zeit.",1,Graduated High School,1595690932560,triangle,165,female,right-handed,NA,NA,NA,german,circle,triangle,NA,images/triangle.jpg,NA,,Sat Jul 25 2020 17:08:37 GMT+0200 (Mitteleuropäische Sommerzeit),1595689717920,No,20.244,12,test
1762,NA,,1720,circle,20,"1. zu lange Testphase bei 1 und 3 (nach 3-4 mal hat mans verstanden). Kurze Testphase bei 2 wäre ganz gut, muss erstmal bemerken wo man drücken muss.\n2. sehr lange richtige Phasen bei 1 und 3, Konzentration könnte schon abnehmen und besonders beim letzten, hat man keine Lust mehr und wird schneller mal unkonzentriert.\n3. Bei Triangle/Circle braucht man immer seine Zeit um mit Maus (oder auf Mauspad) zum nächsten Knopf zu wechseln. Daher sobald ein zweites Dreieck hintereinander kommt, klickt man schneller als wenn man mit der Maus wechseln muss. Dies hat aber natürlich weniger mit der Erkennungszeit (was für ein Symbol das ist) an sich zu tun, als mit welche Mausart man benutzt oder wie man die Maus strategisch vorher platziert.\n4. Bei mir hat das erste Bild des Kreises/des Triangles langsam geladen. Kann aber auch am Internet hängen, aber sowas verzögert natürlich auch nochmal die Zeit.",1,Graduated High School,1595690932560,circle,165,female,right-handed,NA,NA,NA,german,circle,triangle,NA,images/circle.jpg,NA,,Sat Jul 25 2020 17:08:37 GMT+0200 (Mitteleuropäische Sommerzeit),1595689717920,No,20.244,13,test
1762,NA,,1156,triangle,20,"1. zu lange Testphase bei 1 und 3 (nach 3-4 mal hat mans verstanden). Kurze Testphase bei 2 wäre ganz gut, muss erstmal bemerken wo man drücken muss.\n2. sehr lange richtige Phasen bei 1 und 3, Konzentration könnte schon abnehmen und besonders beim letzten, hat man keine Lust mehr und wird schneller mal unkonzentriert.\n3. Bei Triangle/Circle braucht man immer seine Zeit um mit Maus (oder auf Mauspad) zum nächsten Knopf zu wechseln. Daher sobald ein zweites Dreieck hintereinander kommt, klickt man schneller als wenn man mit der Maus wechseln muss. Dies hat aber natürlich weniger mit der Erkennungszeit (was für ein Symbol das ist) an sich zu tun, als mit welche Mausart man benutzt oder wie man die Maus strategisch vorher platziert.\n4. Bei mir hat das erste Bild des Kreises/des Triangles langsam geladen. Kann aber auch am Internet hängen, aber sowas verzögert natürlich auch nochmal die Zeit.",1,Graduated High School,1595690932560,triangle,165,female,right-handed,NA,NA,NA,german,circle,triangle,NA,images/triangle.jpg,NA,,Sat Jul 25 2020 17:08:37 GMT+0200 (Mitteleuropäische Sommerzeit),1595689717920,No,20.244,14,test
